"time","acc_x"
0,-0
5.035165265211776e-5,4.6520389791755835e-7
5.035165265211776e-5,1.9651836551874704e-6
5.2105182012044295e-5,2.3818466777630746e-6
5.2105182012044295e-5,-1.9371728979764622e-6
5.639602572906939e-5,-3.0233750071639002e-6
5.639602572906939e-5,3.593746884270558e-6
6.663360520181039e-5,9.230503842919837e-6
6.663360520181039e-5,1.113402194214954e-6
0.001,-0.17274942066489463
0.002,-0.5151477123263132
0.003,-0.4297542817597684
0.004,-0.31379239748778254
0.005,0.16497074753150778
0.006,0.21539017389984333
0.007,-0.0466481237796032
0.008,0.09185584628148474
0.009,0.09596569485285361
0.01,0.08856902512681512
0.011,-0.06215891810367443
0.012,-0.13222780518596441
0.013,0.01418786125860308
0.014,-0.025401456610501166
0.015,0.010796812854644244
0.016,-0.014642638760177074
0.017,-0.06917043365683495
0.018,6.110469827484005e-4
0.019,-0.040694931153734265
0.02,-0.03537178615751056
0.020217177617922917,-0.012886169470726511
0.020217177617922917,-0.012894286572383807
0.020223941642965735,-0.011098166770628989
0.020223941642965735,-0.01110478389252536
0.02022646000992373,-0.01062783477384691
0.02022646000992373,-0.010632153793426382
0.020228072282410546,-0.010385688978104072
0.020228072282410546,-0.01038718895786402
0.020229476546521616,-0.010352555202665375
0.020229476546521616,-0.01035105522290328
0.02023105847920841,-0.010491762067066559
0.02023105847920841,-0.01048744304748836
0.0202334382283697,-0.010763603795390476
0.0202334382283697,-0.010756986673496623
0.0202391523350727,-0.011731043702436847
0.0202391523350727,-0.011722926600786278
0.02036900879321734,0.004320034981643349
0.02036900879321734,0.004328673020795277
0.021,0.027883524877455546
0.021164626089602054,-0.02303151480322939
0.021164626089602054,-0.023040152842381874
0.022,-0.019122734683071022
0.023,1.2132121296158649e-5
0.024,-0.007100185644073317
0.025,-0.04169064502033262
0.026,-0.0038729012664780356
0.027,-0.006900455332708055
0.028,0.006746677409050751
0.029,-0.005848097220672373
0.03,-0.02540819671464127
0.031,0.0021222969079119428
0.032,0.00717698065910672
0.033,0.005512195721990548
0.034,-0.0019514711135951712
0.035,0.0013211383867257481
0.036,0.008297985949947198
0.037,-0.01033831124070303
0.038,-0.0029602392139171513
0.039,0.004823220055901564
0.04,-0.0010943302030440305
0.041,-8.099717305251886e-4
0.042,0.0032583047215815064
0.043,0.00203790395956982
0.044,-0.005490536974997337
0.045,0.001849535111229289
0.046,7.299614888400252e-4
0.047,-0.0017426868137901674
0.048,0.0014603484941939915
0.049,0.0038433221002948104
0.05,-0.0036782471185059645
0.051,-0.002259024404748164
0.052,0.00437493271633016
0.053,-0.0031495295946200735
0.054,0.002518172115573744
0.055,-6.827919138873151e-4
0.056,-0.001091431526003217
0.057,0.0018988435847992202
0.058,-6.790380684552344e-4
0.059,-5.074350549555268e-4
0.06,0.0024776234324595664
0.061,-0.001680636082832615
0.062,-0.0010715576670183857
0.063,0.0028122684955402544
0.064,-0.0022198203234949643
0.065,0.0012099022504667989
0.066,0.002964978267296914
0.067,-0.003551225283188436
0.068,0.003488985540504086
0.069,-0.003593997902019752
0.07,0.00464090263748515
0.071,-0.0036178665616222183
0.072,0.003772645253126067
0.073,-0.003358931619042632
0.074,0.0025181833747628113
0.075,-0.0024725538811670167
0.076,0.0017593973089309323
0.077,-8.204021890820257e-5
0.078,6.221671943744123e-4
0.079,-0.0010536675234518456
0.08,6.648121549714114e-4
0.081,2.769294106725051e-4
0.082,-0.0019419870041181009
0.083,0.003055639918757125
0.084,-0.0036275915085641763
0.085,0.004881015874220823
0.086,-0.005675194765969838
0.087,0.006083473783650761
0.088,-0.005723476210145462
0.089,0.004575199265827362
0.09,-0.0037857548055264256
0.091,0.002907901961795689
0.092,-0.0030003418400882664
0.093,0.001865894528919776
0.094,-3.200666533416663e-4
0.095,3.8179875671542907e-4
0.096,-0.003157943289807924
0.097,0.004448620579473039
0.098,-0.00461770630399394
0.099,0.0050991357814839655
0.1,-0.005445024472782001
0.101,0.006152533023682183
0.102,-0.003346533080343078
0.103,0.0033020183228172073
0.104,-0.0034182294801780033
0.105,0.0032788687520018123
0.106,-0.002514442006668449
0.107,8.424986762231579e-4
0.108,0.0010844777589202326
0.109,-0.0032317724801535497
0.11,0.0037965991992322534
0.111,-0.003980225819375405
0.112,0.003905038436038677
0.113,-0.0033352550213285315
0.114,0.0027623829494282104
0.115,-0.004371398642958935
0.116,0.004515583685916924
0.117,-0.002085977158388458
0.118,-0.002390682953841927
0.119,0.003796232894880097
0.12,-0.0032252260971971924
0.121,0.0038596231067117293
0.122,-0.0064077258000477255
0.123,0.0035884743921426043
0.124,-2.0902218155061103e-4
0.125,5.315027342929213e-4
0.126,-0.001604916109367971
0.127,0.003061139344508107
0.128,-0.004130878922373793
0.129,0.0019657174581568237
0.13,-0.0014385945988042437
0.131,-0.001573533693896012
0.132,0.005610071298030261
0.133,-0.005310244561658212
0.134,8.28409923447404e-4
0.135,-2.811490904670033e-4
0.136,-0.0020471944543885845
0.137,0.002356283234655615
0.138,-0.0029411225748429692
0.139,0.004945350515255881
0.14,-0.004710827179453286
0.141,0.006111434571337643
0.142,-0.00627867715158012
0.143,0.005078478601590886
0.144,-0.0010854341379855081
0.145,-0.004461314575295194
0.146,0.0052758053767908986
0.147,-0.0033335068975227644
0.148,0.0025496511683237855
0.149,-0.004323778842946491
0.15,0.005136760849702937
0.151,-0.004225429250901025
0.152,0.004062300989390144
0.153,-0.002939167392537523
0.154,0.0016872704222635204
0.155,-0.0012188157538387534
0.156,1.3024822544949188e-4
0.157,0.002687284588752281
0.158,-0.005519821759522647
0.159,0.0034143393541821165
0.16,6.268146583110479e-5
0.161,-0.0016024923822645087
0.162,0.0028384029591076443
0.163,-0.003244873513824853
0.164,0.0020966677849086346
0.165,-9.974777711415084e-4
0.166,-7.848430307177967e-5
0.167,8.690189325477604e-5
0.168,2.030365965710601e-5
0.169,-2.496809445078907e-4
0.17,-3.3851002846974065e-4
0.171,-1.5706387718961157e-4
0.172,1.3958451245954517e-4
0.173,1.3595752883965861e-4
0.174,7.837710435654177e-5
0.175,3.260741234434317e-5
0.176,4.33413350564571e-6
0.177,-7.2211248835496455e-6
0.178,-5.581671834176127e-6
0.179,-3.1389823830774155e-6
0.18,-8.989667370062904e-6
0.181,1.839290346800082e-5
0.182,-3.031634018518803e-5
0.183,-8.341138164669193e-6
0.184,-2.319436348080517e-5
0.185,-2.5311492011959036e-5
0.186,9.301000503503243e-6
0.187,4.4406973776167646e-5
0.188,-1.8741749693046428e-4
0.189,8.493144873561453e-5
0.19,-3.48119459780416e-5
0.191,-7.648944044164052e-5
0.192,1.1340218759781084e-4
0.193,-2.799168007056041e-5
0.194,-9.6382882119328e-5
0.195,9.616341879919998e-5
0.196,5.169601500321086e-6
0.197,-1.102262711932811e-5
0.198,-2.9167760026149736e-6
0.199,-3.3512902304910774e-6
0.2,-1.165902743516245e-6
0.201,-2.841968859745858e-6
0.202,-3.2229456420895808e-6
0.203,-1.6624921593821895e-6
0.204,-3.133516480180454e-6
0.205,-2.272784894064017e-6
0.206,-1.8393499032209881e-6
0.207,3.236947097584597e-7
0.208,1.563520084624237e-6
0.209,-2.8707789205439926e-5
0.21,2.8033354260936783e-5
0.211,1.3892557072736622e-5
0.212,-1.481835494079875e-4
0.213,2.802420743597822e-4
0.214,-1.6998881171614855e-4
0.215,-5.271881784092436e-4
0.216,4.8376247702097697e-4
0.217,4.963496444448934e-5
0.218,-5.789959134061551e-5
0.219,-4.603921698598246e-6
0.22,-3.9812047598841716e-5
0.221,9.09926685589979e-5
0.222,-8.980278023701382e-5
0.223,-1.1327455644472018e-5
0.224,1.4858894709851578e-4
0.225,-9.603617668790809e-5
0.226,-5.9752258808221104e-5
0.227,2.4444477144336396e-4
0.228,-1.2364472612591548e-4
0.229,2.1836570900823915e-5
0.23,1.0335297621028028e-4
0.231,-5.65618740934748e-4
0.232,8.355040181073914e-4
0.233,-3.4185160820515703e-4
0.234,4.2461884355143864e-4
0.235,1.9201357533665808e-4
0.236,-0.0011044695677922545
0.237,-0.0016110177387787528
0.238,-0.0014514305304513808
0.239,9.330329342910337e-5
0.24,-2.376325761309639e-4
0.241,1.8280856134750278e-4
0.242,1.1495971206743061e-4
0.243,-4.625411931390988e-4
0.244,4.915777338376781e-4
0.245,-1.4710548804952595e-4
0.246,-3.488615210334167e-4
0.247,1.2264333280065376e-4
0.248,-3.110988244772739e-4
0.249,2.498068026680622e-4
0.25,-7.834110657845006e-5
0.251,-1.4007029450913144e-4
0.252,2.66652075564644e-4
0.253,-2.5134275916277593e-4
0.254,1.1592795214904195e-4
0.255,-4.110226794024063e-5
0.256,-6.954236890976961e-5
0.257,2.1321017104486417e-4
0.258,-1.8947752014625285e-4
0.259,2.701790746632571e-4
0.26,-1.3798991409752492e-4
0.261,1.9160848310217915e-6
0.262,6.798013998221553e-5
0.263,-1.2107135364164412e-4
0.264,1.15759745354993e-4
0.265,-8.569621226006685e-5
0.266,2.536950728010412e-5
0.267,4.862288831103401e-5
0.268,-9.915587195408193e-5
0.269,1.282027160043886e-4
0.27,-1.1006894432669112e-4
0.271,1.3896628664644695e-4
0.272,-1.7927479668344848e-4
0.273,-1.2334365376787115e-5
0.274,1.0740945133774771e-4
0.275,5.676573287901054e-4
0.276,0.00101977173079143
0.277,-6.498732986308653e-4
0.278,-0.003869513542669567
0.279,-0.0017833311947524355
0.28,1.2821584878613956e-4
0.281,3.5287025303137876e-4
0.282,3.5784763677554343e-4
0.283,2.5917805805236727e-4
0.284,1.2117624218582757e-4
0.285,7.399993898116186e-5
0.286,1.3175801505121987e-4
0.287,1.730506293218248e-5
0.288,-5.713564990222908e-5
0.289,2.8751690983430667e-5
0.29,-1.5680529324102466e-5
0.291,-8.555649418651168e-6
0.292,2.44700795824504e-5
0.293,-2.2103916420490588e-5
0.294,7.049427547978215e-6
0.295,2.686038185512052e-5
0.296,-4.992526578401213e-5
0.297,4.013400612912221e-5
0.298,-1.3108402909522976e-5
0.299,-1.2997508697210058e-5
0.3,3.510626518654636e-5
0.301,-3.557122599773255e-5
0.302,2.4355678094889477e-6
0.303,1.707267776013266e-5
0.304,-1.5121537856266354e-5
0.305,-3.72973119611153e-7
0.306,1.1325035512987913e-5
0.307,-1.2673958152409348e-5
0.308,9.260800849508755e-7
0.309,1.487424940060933e-5
0.31,-2.1809135424710746e-5
0.311,-7.911676868754824e-6
0.312,1.9668921936444317e-5
0.313,-1.8834219775443195e-5
0.314,-7.4462082256254725e-6
0.315,1.056269146854083e-5
0.316,-7.673328800972268e-6
0.317,-1.3301462352677262e-6
0.318,7.992130242606699e-6
0.319,3.918735575425547e-6
0.32,-7.142355814337975e-6
0.321,-8.718956307829373e-6
0.322,-5.570093154494415e-7
0.323,5.513627130304677e-6
0.324,-9.851845742536725e-7
0.325,-4.9164512467836374e-6
0.326,-2.0519152429399057e-6
0.327,8.616982519193961e-7
0.328,5.182711259044126e-7
0.329,-2.822066432650594e-6
0.33,-4.012028068656193e-6
0.331,-5.150805984510676e-7
0.332,2.9002002794875636e-6
0.333,5.030193123700677e-7
0.334,-4.438842179932401e-6
0.335,-5.326918108172762e-6
0.336,2.2541836008360683e-6
0.337,7.411829391790192e-6
0.338,-2.9173041201091543e-6
0.339,-7.93211287414275e-6
0.34,-5.469326196938518e-6
0.341,4.422752739097202e-6
0.342,8.394299513603265e-6
0.343,-4.241845598829119e-6
0.344,-1.0049268828138391e-5
0.345,2.059638032791966e-6
0.346,8.880638726616041e-7
0.347,-1.419807347580182e-6
0.348,-1.286948963286072e-6
0.349,-1.1701541520192649e-6
0.35,2.3197607255665e-6
0.351,5.3796453673427e-6
0.352,1.7285475696904307e-6
0.353,-5.347441534908626e-6
0.354,-6.1897267214505725e-6
0.355,3.2223977786127733e-7
0.356,6.545805245672387e-6
0.357,-9.107620273673955e-6
0.358,-1.684874521595825e-5
0.359,2.2182876904808246e-6
0.36,1.2679002698690045e-5
0.361,-1.099045234675966e-5
0.362,-1.0057567936039291e-5
0.363,2.352266160077221e-6
0.364,-4.4618851402500326e-7
0.365,-1.0953499158250501e-6
0.366,1.1942103828599393e-6
0.367,-1.2539006473688552e-6
0.368,-3.497862685164499e-6
0.369,5.552445581535892e-6
0.37,1.0253192911036102e-5
0.371,-5.083802199323806e-6
0.372,-1.5644293001715326e-5
0.373,-1.6652241940917634e-6
0.374,1.8017514158807924e-5
0.375,-5.616640512406956e-6
0.376,-7.959578770033726e-6
0.377,4.994203237407291e-6
0.378,9.038667382499366e-6
0.379,7.2756461400591554e-6
0.38,-3.772030474080701e-6
0.381,-6.434952641909408e-6
0.382,6.994620090405856e-6
0.383,9.262688336897362e-6
0.384,4.4099958182441945e-6
0.385,-1.0879773339411702e-5
0.386,-6.054843218972206e-6
0.387,5.811083155116137e-6
0.388,6.642784763366549e-7
0.389,-5.758018596924153e-7
0.39,-1.1088761014965698e-7
0.391,-1.966212181958582e-6
0.392,-9.475695161298425e-7
0.393,-1.4734512146508116e-6
0.394,-6.625829671313976e-6
0.395,-6.4163059428357094e-6
0.396,-2.809863888120212e-6
0.397,-2.5605817084994875e-6
0.398,-2.089747583144952e-6
0.399,5.608319919581106e-7
0.4,4.450983955683885e-6
0.401,6.681982986700419e-6
0.402,-4.99695178013404e-6
0.403,-1.811837878235023e-5
0.404,-6.090778368661454e-6
0.405,1.5879544902897003e-6
0.406,-8.97171112401729e-8
0.407,1.5032223615318863e-6
0.408,1.7707667280264516e-6
0.409,8.534518413649828e-7
0.41,1.4791463578411879e-6
0.411,3.3608386506012167e-6
0.412,1.0807880423957528e-8
0.413,-4.894301605440354e-6
0.414,-5.181832606337977e-6
0.415,2.7185804285512205e-6
0.416,1.5834917338308774e-5
0.417,-1.0609780365711252e-5
0.418,-4.6412468407808216e-5
0.419,-2.2870306451372446e-5
0.42,-6.741237549734436e-6
0.421,-4.681890430902058e-8
0.422,1.343717570601033e-6
0.423,2.279105369429324e-7
0.424,-5.499697722788355e-7
0.425,-9.548854367213977e-7
0.426,-9.100975381093335e-7
0.427,-8.625055274991134e-7
0.428,-7.282843140221651e-7
0.429,-6.590142058726656e-7
0.43,-6.199962573893991e-7
0.431,-6.151219587580137e-7
0.432,-6.501287196924999e-7
0.433,-6.927157261138461e-7
0.434,-7.06906022052145e-7
0.435,-7.146519229728199e-7
0.436,-7.039985919776726e-7
0.437,-6.769857482935571e-7
0.438,-6.652044498567378e-7
0.439,-6.696382149895541e-7
0.44,-6.742798763781366e-7
0.441,-6.76520831299765e-7
0.442,-6.768169820703385e-7
0.443,-6.727981686771578e-7
0.444,-6.654377790460408e-7
0.445,-6.616597167941052e-7
0.446,-6.602656839049814e-7
0.447,-6.59457610296954e-7
0.448,-6.5895448259079e-7
0.449,-6.572614460464976e-7
0.45,-6.522521017182648e-7
0.451,-6.487996556669984e-7
0.452,-6.473143878693577e-7
0.453,-6.463433223635739e-7
0.454,-6.460799902296976e-7
0.455,-6.459956335969075e-7
0.456,-6.439777365252475e-7
0.457,-6.406004062764481e-7
0.458,-6.352816969146247e-7
0.459,-6.273610393958684e-7
0.46,-6.220999450579079e-7
0.461,-6.187313038585884e-7
0.462,-6.176304386817932e-7
0.463,-6.199013704577538e-7
0.464,-6.201297705343833e-7
0.465,-6.193744169213922e-7
0.466,-6.175121232132597e-7
0.467,-6.137070275302747e-7
0.468,-6.107257865539673e-7
0.469,-6.076608625171787e-7
0.47,-6.042721208410207e-7
0.471,-6.006446439110746e-7
0.472,-5.974775521000453e-7
0.473,-5.949736038846076e-7
0.474,-5.93510330437752e-7
0.475,-5.935788331412617e-7
0.476,-5.925198102718632e-7
0.477,-5.908500205764611e-7
0.478,-5.883442459331256e-7
0.479,-5.844832535739641e-7
0.48,-5.815033987666141e-7
0.481,-5.787507231236333e-7
0.482,-5.762517100715847e-7
0.483,-5.742412687581577e-7
0.484,-5.722065161140044e-7
0.485,-5.703485999597468e-7
0.486,-5.686638432367275e-7
0.487,-5.670612892028082e-7
0.488,-5.651502937853436e-7
0.489,-5.626558167715068e-7
0.49,-5.591416210037892e-7
0.491,-5.540345863752627e-7
0.492,-5.501249358830229e-7
0.493,-5.470414717878569e-7
0.494,-5.454751598188423e-7
0.495,-5.46514124677433e-7
0.496,-5.473836414693345e-7
0.497,-5.492811507301631e-7
0.498,-5.52238895890067e-7
0.499,-5.56021526709749e-7
0.5,-5.576994629441501e-7
0.501,-5.56425712283648e-7
0.502,-5.501922651363067e-7
0.503,-5.363947598868712e-7
0.504,-5.24996979278658e-7
0.505,-5.134614741164611e-7
0.506,-5.03781474647802e-7
0.507,-4.991318645619636e-7
0.508,-4.962002264630172e-7
0.509,-4.996375128074604e-7
0.51,-5.122261990120336e-7
0.511,-5.370164954388024e-7
0.512,-5.558654062598478e-7
0.513,-5.711748054526566e-7
0.514,-5.765984560923698e-7
0.515,-5.633881831612619e-7
0.516,-5.512072067670459e-7
0.517,-5.280181459843547e-7
0.518,-4.924685997886868e-7
0.519,-4.440239894654141e-7
0.52,-4.0548497765025004e-7
0.521,-3.732110650522813e-7
0.522,-3.541160716880043e-7
0.523,-3.563092061953377e-7
0.524,-3.890675349116357e-7
0.525,-4.628301445985805e-7
0.526,-5.891910887512175e-7
0.527,-6.58452341539828e-7
0.528,-6.984380683250357e-7
0.529,-7.226352581879425e-7
0.53,-7.221988523320455e-7
0.531,-6.871095900029545e-7
0.532,-6.061741114615771e-7
0.533,-5.129351331456533e-7
0.534,-4.831251279591164e-7
0.535,-4.509170389299655e-7
0.536,-4.167231966722973e-7
0.537,-3.809551548106249e-7
0.538,-3.440224426443095e-7
0.539,-3.063334951258767e-7
0.54,-2.9046439870006324e-7
0.541,-2.8789773692805554e-7
0.542,-2.9800114265121636e-7
0.543,-3.225685391017308e-7
0.544,-3.633784074752455e-7
0.545,-4.2219391166442577e-7
0.546,-4.7035226219405146e-7
0.547,-4.7266458857997407e-7
0.548,-4.6031051631478803e-7
0.549,-4.302159343771983e-7
0.55,-3.7929763646582515e-7
0.551,-3.0446290544272614e-7
0.552,-2.0261081756789423e-7
0.553,-2.080529545867016e-7
0.554,-2.4937121562151887e-7
0.555,-3.2555647405674293e-7
0.556,-4.41924386695991e-7
0.557,-6.03779236107993e-7
0.558,-8.16413144144601e-7
0.559,-9.839933075017626e-7
0.56,-1.0311930720985352e-6
0.561,-1.0368203738342352e-6
0.562,-9.92479406547453e-7
0.563,-8.897571106003532e-7
0.564,-7.202239612480454e-7
0.565,-6.357216785213282e-7
0.566,-6.490758410193642e-7
0.567,-7.045531882909906e-7
0.568,-8.112393423131969e-7
0.569,-9.782281841230756e-7
0.57,-1.21462315133547e-6
0.571,-1.1973979034407556e-6
0.572,-1.0267465231361683e-6
0.573,-7.328201993561656e-7
0.574,-2.957042031237478e-7
0.575,3.045745503027497e-7
0.576,1.0730373631862022e-6
0.577,1.0077515677497928e-6
0.578,6.676038322717126e-7
0.579,-8.200796708379698e-10
0.58,-1.0510488799853057e-6
0.581,-2.5367220479743935e-6
0.582,-4.088691196668659e-6
0.583,-3.7922300643589146e-6
0.584,-2.826206682904342e-6
0.585,-1.0625324404767156e-6
0.586,1.6271476706020138e-6
0.587,5.371454013358701e-6
0.588,8.371625605518851e-6
0.589,8.160176080296289e-6
0.59,7.326909699401085e-6
0.591,5.870051742129512e-6
0.592,3.787836628577068e-6
0.593,1.0785074050501109e-6
0.594,-6.739993299031966e-7
0.595,-1.1024553173699658e-6
0.596,-1.267504379565132e-6
0.597,-1.1696639784508633e-6
0.598,-8.094517841561455e-7
0.599,-5.382180604529552e-7
0.6,-4.6060995495533774e-7
0.601,-3.493724588521374e-7
0.602,-2.0528932698216096e-7
0.603,-2.9142286472882972e-8
0.604,7.396090329070404e-8
0.605,7.230568810356885e-8
0.606,3.281856231218683e-8
0.607,-4.5357961275804826e-8
0.608,-1.6307814088012407e-7
0.609,-2.5365874678495715e-7
0.61,-2.9793844735781505e-7
0.611,-3.405618428375945e-7
0.612,-3.8230957277729516e-7
0.613,-4.2396092114760364e-7
0.614,-4.5151549465938245e-7
0.615,-4.5674660642536224e-7
0.616,-4.463599557746889e-7
0.617,-4.1837005071432287e-7
0.618,-3.7078058456874174e-7
0.619,-3.240376770241582e-7
0.62,-2.8976802080027397e-7
0.621,-2.569017288900355e-7
0.622,-2.2755685535891246e-7
0.623,-2.0384880117241266e-7
0.624,-1.8788975009176312e-7
0.625,-1.817894904609929e-7
0.626,-1.8765422926669828e-7
0.627,-2.075879378393708e-7
0.628,-2.436911596959135e-7
0.629,-2.665165239612577e-7
0.63,-2.7018017978441833e-7
0.631,-2.7582426143091254e-7
0.632,-2.834527835782197e-7
0.633,-2.9306363302783467e-7
0.634,-3.046497035752438e-7
0.635,-3.181988478262454e-7
0.636,-3.336929976782699e-7
0.637,-3.511090469476841e-7
0.638,-3.6313406670540616e-7
0.639,-3.6797247482400763e-7
0.64,-3.700485301516565e-7
0.641,-3.6889118504301877e-7
0.642,-3.640234145230181e-7
0.643,-3.5496210948338103e-7
0.644,-3.412176208250628e-7
0.645,-3.22295257593197e-7
0.646,-2.976936700482824e-7
0.647,-2.831238085088117e-7
0.648,-2.8211614466755464e-7
0.649,-2.8429667153773153e-7
0.65,-2.901363262974854e-7
0.651,-3.001015203007995e-7
0.652,-3.1465534156005504e-7
0.653,-3.3425589462954264e-7
0.654,-3.593569677384778e-7
0.655,-3.904090206674482e-7
0.656,-4.085155359545567e-7
0.657,-4.093135839156048e-7
0.658,-4.049898458813317e-7
0.659,-3.947937843307159e-7
0.66,-3.7796981644522276e-7
0.661,-3.537561321653726e-7
0.662,-3.213862386219901e-7
0.663,-2.800877231257104e-7
0.664,-2.2908245922437231e-7
0.665,-1.9794547778673177e-7
0.666,-1.934068126763222e-7
0.667,-1.9624350333646845e-7
0.668,-2.0751207108204994e-7
0.669,-2.2826597667613413e-7
0.67,-2.5955556126611157e-7
0.671,-3.024277850371959e-7
0.672,-3.5792691144287403e-7
0.673,-4.270935145544996e-7
0.674,-4.827171262711261e-7
0.675,-5.155308864246422e-7
0.676,-5.411170769242801e-7
0.677,-5.566254588362796e-7
0.678,-5.589502302116856e-7
0.679,-5.447317859008649e-7
0.68,-5.103539774120591e-7
0.681,-4.5194549569416154e-7
0.682,-3.6537901093591785e-7
0.683,-3.0308839260584364e-7
0.684,-2.811116727174934e-7
0.685,-2.6530578101091606e-7
0.686,-2.5831248451346767e-7
0.687,-2.6302247269072154e-7
0.688,-2.825751896917694e-7
0.689,-3.2035951624820314e-7
0.69,-3.8001366875484166e-7
0.691,-4.654250852498265e-7
0.692,-5.223007043531069e-7
0.693,-5.338121651377037e-7
0.694,-5.346596952948701e-7
0.695,-5.217263302492725e-7
0.696,-4.916275088140409e-7
0.697,-4.407113851634392e-7
0.698,-3.650579537550769e-7
0.699,-2.6047966694697777e-7
0.7,-1.2252075520802208e-7
0.701,-2.209036864542213e-8
0.702,1.8401247192656456e-8
0.703,4.310696544163051e-8
0.704,4.720583646200538e-8
0.705,2.5476781684297123e-8
0.706,-2.77022396133475e-8
0.707,-1.1835365876233794e-7
0.708,-2.529008189533499e-7
0.709,-4.381682838783263e-7
0.71,-5.713157019693327e-7
0.711,-6.201748038447974e-7
0.712,-6.493359570036716e-7
0.713,-6.521804198911241e-7
0.714,-6.215195804681883e-7
0.715,-5.495947539291279e-7
0.716,-4.280777984311257e-7
0.717,-2.4806981890890256e-7
0.718,-1.0179557197176337e-10
0.719,1.7159220522255936e-7
0.72,2.32534768107584e-7
0.721,2.81353680908758e-7
0.722,3.155600282189752e-7
0.723,3.3266744126070336e-7
0.724,3.3019157585911785e-7
0.725,3.0565069053523075e-7
0.726,2.5656376578808704e-7
0.727,1.8045362937257892e-7
0.728,7.484399033863554e-8
0.729,-1.7755720116419127e-8
0.73,-8.136351448140289e-8
0.731,-1.5310617940134108e-7
0.732,-2.3287982187092382e-7
0.733,-3.2057660082074335e-7
0.734,-4.1608764012046606e-7
0.735,-5.192995874425677e-7
0.736,-6.300971751027618e-7
0.737,-7.483633688298852e-7
0.738,-8.739769691290533e-7
0.739,-9.767284828710032e-7
0.74,-1.0368448718489631e-6
0.741,-1.0829505935339157e-6
0.742,-1.1130883356136323e-6
0.743,-1.1252982891063468e-6
0.744,-1.1176174812277395e-6
0.745,-1.088080025080096e-6
0.746,-1.034716655579082e-6
0.747,-9.555560845919686e-7
0.748,-8.486230758109059e-7
0.749,-7.429115619350668e-7
0.75,-6.663805253159794e-7
0.751,-5.804918810081716e-7
0.752,-4.853885979816397e-7
0.753,-3.812118745116777e-7
0.754,-2.681002637672236e-7
0.755,-1.461898704313569e-7
0.756,-1.561509088698898e-8
0.757,1.2349233380337665e-7
0.758,2.7100283706005257e-7
0.759,4.020032285945163e-7
0.76,4.824314338014446e-7
0.761,5.485637256663622e-7
0.762,5.983194435454919e-7
0.763,6.296193724164567e-7
0.764,6.403862301551655e-7
0.765,6.285449042353619e-7
0.766,5.920208698828588e-7
0.767,5.287423909816624e-7
0.768,4.366390451426838e-7
0.769,3.3548138322903043e-7
0.77,2.683174409323641e-7
0.771,1.9622558156129344e-7
0.772,1.216319650554354e-7
0.773,4.723207081003267e-8
0.774,-2.401128296192212e-8
0.775,-8.886657676399068e-8
0.776,-1.4383438362575163e-7
0.777,-1.8514626554111402e-7
0.778,-2.0876618433973704e-7
0.779,-2.2519127551579032e-7
0.78,-2.7186400253231824e-7
0.781,-3.1161134517176947e-7
0.782,-3.4299129969550535e-7
0.783,-3.645119992512491e-7
0.784,-3.746311040275785e-7
0.785,-3.71755899730708e-7
0.786,-3.542436024517315e-7
0.787,-3.2040074249284345e-7
0.788,-2.684839988109644e-7
0.789,-2.0821591428799024e-7
0.79,-1.8374632082540643e-7
0.791,-1.5948224107997788e-7
0.792,-1.3706309498484615e-7
0.793,-1.1829223867110272e-7
0.794,-1.0513747117357752e-7
0.795,-9.972984993389389e-8
0.796,-1.0436476494124491e-7
0.797,-1.2150155004331253e-7
0.798,-1.5376351281126688e-7
0.799,-1.9532495543206352e-7
0.8,-1.982481747653253e-7
0.801,-2.0144864587567923e-7
0.802,-2.046229148344736e-7
0.803,-2.0741870065954515e-7
0.804,-2.0943322498467865e-7
0.805,-2.102130116643508e-7
0.806,-2.092550744903221e-7
0.807,-2.060058815755994e-7
0.808,-1.9986213950495824e-7
0.809,-1.913808452824739e-7
0.81,-1.9160273623253232e-7
0.811,-1.9178983434731123e-7
0.812,-1.9189228672722436e-7
0.813,-1.918545792234383e-7
0.814,-1.9161662423439196e-7
0.815,-1.911134509535728e-7
0.816,-1.9027468067811526e-7
0.817,-1.890252617764432e-7
0.818,-1.8728488815344946e-7
0.819,-1.850664053115736e-7
0.82,-1.8431171966426518e-7
0.821,-1.8358740705437526e-7
0.822,-1.8291463632635896e-7
0.823,-1.823166368986051e-7
0.824,-1.8182047067938356e-7
0.825,-1.8145423286153317e-7
0.826,-1.8124931810969969e-7
0.827,-1.8123929956814777e-7
0.828,-1.8146038127664355e-7
0.829,-1.8194956485917402e-7
0.83,-1.8166438220390546e-7
0.831,-1.813394656657863e-7
0.832,-1.8095893705716293e-7
0.833,-1.8050623895593532e-7
0.834,-1.7996268908415658e-7
0.835,-1.7930881812677768e-7
0.836,-1.785237099261039e-7
0.837,-1.775852004337608e-7
0.838,-1.7646960936978928e-7
0.839,-1.751524365545265e-7
0.84,-1.7384212347426597e-7
0.841,-1.729567873365312e-7
0.842,-1.7202391200399347e-7
0.843,-1.71033550544486e-7
0.844,-1.6997507312765947e-7
0.845,-1.6883630427066976e-7
0.846,-1.6760370080692866e-7
0.847,-1.6626300747279998e-7
0.848,-1.6479819242576355e-7
0.849,-1.6319244933171717e-7
0.85,-1.6142730507873182e-7
0.851,-1.600778045673934e-7
0.852,-1.5913108708520696e-7
0.853,-1.5825446364470253e-7
0.854,-1.5744905579317958e-7
0.855,-1.5671436437436626e-7
0.856,-1.560492198793284e-7
0.857,-1.5545053044796475e-7
0.858,-1.5491520521937474e-7
0.859,-1.5443791334668333e-7
0.86,-1.5401312380980414e-7
0.861,-1.5363322147798897e-7
0.862,-1.5349086901483844e-7
0.863,-1.5345357495810674e-7
0.864,-1.534985637485775e-7
0.865,-1.536200942009458e-7
0.866,-1.5381123763535953e-7
0.867,-1.5406318765176508e-7
0.868,-1.543670383741258e-7
0.869,-1.5471242753584136e-7
0.87,-1.5508816197939979e-7
0.871,-1.5548122522801577e-7
0.872,-1.5586007662271584e-7
0.873,-1.5614520454398928e-7
0.874,-1.5637829964276762e-7
0.875,-1.5654110585572312e-7
0.876,-1.5661387087195777e-7
0.877,-1.5657620722198118e-7
0.878,-1.564063371040092e-7
0.879,-1.560815858780984e-7
0.88,-1.5557861632320424e-7
0.881,-1.5487283144821617e-7
0.882,-1.5393839958299793e-7
0.883,-1.531166539114892e-7
0.884,-1.525466268859077e-7
0.885,-1.5194520697203728e-7
0.886,-1.5132181740984407e-7
0.887,-1.5068744763091502e-7
0.888,-1.500534676512899e-7
0.889,-1.4943347514950744e-7
0.89,-1.4884171894991027e-7
0.891,-1.482937449504007e-7
0.892,-1.4780656476531817e-7
0.893,-1.473980828503585e-7
0.894,-1.4682761850792758e-7
0.895,-1.4621947896920062e-7
0.896,-1.4562891603731032e-7
0.897,-1.4506307488559855e-7
0.898,-1.4452826346822434e-7
0.899,-1.4403224890546795e-7
0.9,-1.435829030116409e-7
0.901,-1.431883428493208e-7
0.902,-1.4285711802397572e-7
0.903,-1.4259859237863992e-7
0.904,-1.4239151102657388e-7
0.905,-1.420027316845207e-7
0.906,-1.4161619843466866e-7
0.907,-1.4122803071447976e-7
0.908,-1.4083470423198463e-7
0.909,-1.4043190710300024e-7
0.91,-1.4001510739714007e-7
0.911,-1.3957966771283026e-7
0.912,-1.3912016560979623e-7
0.913,-1.3863110737144524e-7
0.914,-1.3810668797464842e-7
0.915,-1.3759917416589218e-7
0.916,-1.3715866187258285e-7
0.917,-1.367172194344235e-7
0.918,-1.3627588046905004e-7
0.919,-1.358349666080727e-7
0.92,-1.353953348326442e-7
0.921,-1.349576457254642e-7
0.922,-1.3452304814531857e-7
0.923,-1.3409228705185683e-7
0.924,-1.3366695672534235e-7
0.925,-1.332484540483847e-7
0.926,-1.3282344035747684e-7
0.927,-1.3239680574095303e-7
0.928,-1.3197439296952496e-7
0.929,-1.315570037352387e-7
0.93,-1.3114582697593136e-7
0.931,-1.3074178450978025e-7
0.932,-1.3034680534929066e-7
0.933,-1.299618224148702e-7
0.934,-1.2958888240266475e-7
0.935,-1.2922949987892451e-7
0.936,-1.2888577027858616e-7
0.937,-1.285571480380554e-7
0.938,-1.282280462922003e-7
0.939,-1.278930651382737e-7
0.94,-1.2754623823774125e-7
0.941,-1.2718143471701637e-7
0.942,-1.2679143990279584e-7
0.943,-1.2636856761005788e-7
0.944,-1.259043517221059e-7
0.945,-1.2538996652100565e-7
0.946,-1.2492032508415463e-7
0.947,-1.2459298193157053e-7
0.948,-1.2427100459788676e-7
0.949,-1.2395015758226435e-7
0.95,-1.2362624968176306e-7
0.951,-1.2329405452149444e-7
0.952,-1.229478814313012e-7
0.953,-1.2258151338429002e-7
0.954,-1.2218796330287773e-7
0.955,-1.2176007346820228e-7
0.956,-1.2141913918739533e-7
0.957,-1.211100938425247e-7
0.958,-1.2079626554584166e-7
0.959,-1.2047231778833378e-7
0.96,-1.2013285466405677e-7
0.961,-1.1977227676318591e-7
0.962,-1.193834778812075e-7
0.963,-1.1895971663289373e-7
0.964,-1.184930052966493e-7
0.965,-1.1800589982957632e-7
0.966,-1.1767948959739982e-7
0.967,-1.1735634530829486e-7
0.968,-1.1703364954929185e-7
0.969,-1.1670760491355736e-7
0.97,-1.1637431363009654e-7
0.971,-1.1602851224257194e-7
0.972,-1.1566526370021535e-7
0.973,-1.1527921117693296e-7
0.974,-1.1486343454158998e-7
0.975,-1.144835451993842e-7
0.976,-1.1416058087743153e-7
0.977,-1.1383298703648848e-7
0.978,-1.1349650819170165e-7
0.979,-1.131469984372302e-7
0.98,-1.1277911082796521e-7
0.981,-1.1238703645499726e-7
0.982,-1.1196527427426162e-7
0.983,-1.115064578449676e-7
0.984,-1.1101655239542652e-7
0.985,-1.1068458771745782e-7
0.986,-1.103591864559661e-7
0.987,-1.1003821143162895e-7
0.988,-1.0971896791112101e-7
0.989,-1.0939828509748395e-7
0.99,-1.0907237590895846e-7
0.991,-1.0873723710336236e-7
0.992,-1.0838819686220802e-7
0.993,-1.0802016547906135e-7
0.994,-1.0769301417301591e-7
0.995,-1.0740289746458132e-7
0.996,-1.0711201747781729e-7
0.997,-1.0681673734413977e-7
0.998,-1.0651321691312887e-7
0.999,-1.0619663093347498e-7
1,-1.0586235976717262e-7
1.001,-1.0550489704108656e-7
1.002,-1.0511884718233944e-7
1.003,-1.0472092448754466e-7
1.004,-1.0443072429033862e-7
1.005,-1.0414276929715527e-7
1.006,-1.0385359294762253e-7
1.007,-1.0356066537653419e-7
1.008,-1.032604723949504e-7
1.009,-1.0294907859531577e-7
1.01,-1.0262208105515924e-7
1.011,-1.0227462132750276e-7
1.012,-1.0190187427205899e-7
1.013,-1.0158868390952591e-7
1.014,-1.0130903216332143e-7
1.015,-1.0102953529322889e-7
1.016,-1.0074652323499578e-7
1.017,-1.004570522322723e-7
1.018,-1.0015755536052495e-7
1.019,-9.984410409558109e-8
1.02,-9.951193891133414e-8
1.021,-9.915645216018731e-8
1.022,-9.87953392428409e-8
1.023,-9.848785931243498e-8
1.024,-9.818035562325633e-8
1.025,-9.787290600193899e-8
1.026,-9.756593599696828e-8
1.027,-9.72591344128304e-8
1.028,-9.695291014466534e-8
1.029,-9.664719369251173e-8
1.03,-9.634252418067035e-8
1.031,-9.603912132227777e-8
1.032,-9.57367336518189e-8
1.033,-9.543580437032517e-8
1.034,-9.513672316607824e-8
1.035,-9.484028662409827e-8
1.036,-9.454670446551461e-8
1.037,-9.425680302932449e-8
1.038,-9.397092515239791e-8
1.039,-9.368982190061104e-8
1.04,-9.341464268786126e-8
1.041,-9.313943860611573e-8
1.042,-9.2856398792307e-8
1.043,-9.257404864904117e-8
1.044,-9.229182695857929e-8
1.045,-9.201010442438928e-8
1.046,-9.172836390458627e-8
1.047,-9.144661061721848e-8
1.048,-9.116448507207053e-8
1.049,-9.088240393584357e-8
1.05,-9.059933203658943e-8
1.051,-9.031871817111181e-8
1.052,-9.003887924130538e-8
1.053,-8.97592502546729e-8
1.054,-8.948073160208736e-8
1.055,-8.920281990842938e-8
1.056,-8.892587510800354e-8
1.057,-8.865047762540712e-8
1.058,-8.837662057725737e-8
1.059,-8.810481733068087e-8
1.06,-8.784355287616563e-8
1.061,-8.759512126754743e-8
1.062,-8.734742673599527e-8
1.063,-8.70992088453093e-8
1.064,-8.684774421841013e-8
1.065,-8.65908850178343e-8
1.066,-8.63257544336804e-8
1.067,-8.604900647579683e-8
1.068,-8.575745769068277e-8
1.069,-8.544792229336906e-8
1.07,-8.521180416831697e-8
1.071,-8.49782071377092e-8
1.072,-8.474563895077836e-8
1.073,-8.451162991640615e-8
1.074,-8.427442144132158e-8
1.075,-8.403159612591082e-8
1.076,-8.37799446484766e-8
1.077,-8.351673363993228e-8
1.078,-8.323854805425412e-8
1.079,-8.298234499548585e-8
1.08,-8.275498064591602e-8
1.081,-8.252606031877718e-8
1.082,-8.229403525294998e-8
1.083,-8.205564572261181e-8
1.084,-8.180976018845598e-8
1.085,-8.155260455833258e-8
1.086,-8.128112438665624e-8
1.087,-8.099211035172971e-8
1.088,-8.06821467413954e-8
1.089,-8.036556120583072e-8
1.09,-8.01343019718459e-8
1.091,-7.990580619399168e-8
1.092,-7.967859561031077e-8
1.093,-7.945154889554829e-8
1.094,-7.922272049487589e-8
1.095,-7.898994680566318e-8
1.096,-7.875097429721478e-8
1.097,-7.850332850445341e-8
1.098,-7.824428538416583e-8
1.099,-7.797080014970703e-8
1.1,-7.77424886688749e-8
1.101,-7.753165620627556e-8
1.102,-7.732067397459019e-8
1.103,-7.710798410887065e-8
1.104,-7.689083836304178e-8
1.105,-7.66677318297937e-8
1.106,-7.643591515282822e-8
1.107,-7.619222097687839e-8
1.108,-7.593400519478877e-8
1.109,-7.565793880282001e-8
1.11,-7.539744895090905e-8
1.111,-7.519018152546408e-8
1.112,-7.4983517506233e-8
1.113,-7.477655872278888e-8
1.114,-7.456726969223837e-8
1.115,-7.435371629505028e-8
1.116,-7.413354696783614e-8
1.117,-7.390514167315843e-8
1.118,-7.366531495911488e-8
1.119,-7.341140995098527e-8
1.12,-7.314050420870188e-8
1.121,-7.29387320541619e-8
1.122,-7.27384464882519e-8
1.123,-7.253792444483764e-8
1.124,-7.233561916120124e-8
1.125,-7.212962116476263e-8
1.126,-7.191817352758534e-8
1.127,-7.169946569796082e-8
1.128,-7.147003444618605e-8
1.129,-7.122806544579419e-8
1.13,-7.097092125096793e-8
1.131,-7.074557739628062e-8
1.132,-7.054987383181555e-8
1.133,-7.035450588777081e-8
1.134,-7.015810787880383e-8
1.135,-6.995967105627443e-8
1.136,-6.975668997988294e-8
1.137,-6.954774456335855e-8
1.138,-6.933063545488949e-8
1.139,-6.910264771509134e-8
1.14,-6.886194792166123e-8
1.141,-6.862108747895945e-8
1.142,-6.843042266169164e-8
1.143,-6.824096898672138e-8
1.144,-6.80508779327127e-8
1.145,-6.785919437479748e-8
1.146,-6.766433613414335e-8
1.147,-6.746430158965921e-8
1.148,-6.725730383738693e-8
1.149,-6.70413952130744e-8
1.15,-6.681400788188796e-8
1.151,-6.657283124766877e-8
1.152,-6.636083904609791e-8
1.153,-6.615649938979118e-8
1.154,-6.595165524814206e-8
1.155,-6.57469036990932e-8
1.156,-6.554213216602989e-8
1.157,-6.533670282582449e-8
1.158,-6.513129435781195e-8
1.159,-6.492544069036654e-8
1.16,-6.471931446316859e-8
1.161,-6.451314460420576e-8
1.162,-6.431553511987431e-8
1.163,-6.41309075843921e-8
1.164,-6.394739504589353e-8
1.165,-6.376460792711924e-8
1.166,-6.358059312372433e-8
1.167,-6.339465097315866e-8
1.168,-6.320493395328697e-8
1.169,-6.301027311028662e-8
1.17,-6.28081974207717e-8
1.171,-6.259748619452665e-8
1.172,-6.237915306517294e-8
1.173,-6.220723225425218e-8
1.174,-6.203726632403317e-8
1.175,-6.186807344210621e-8
1.176,-6.169857846849425e-8
1.177,-6.152760390065737e-8
1.178,-6.135350349989466e-8
1.179,-6.117489104173757e-8
1.18,-6.099022420436029e-8
1.181,-6.079764802713328e-8
1.182,-6.059478618869463e-8
1.183,-6.041544342583194e-8
1.184,-6.025168397538749e-8
1.185,-6.008738417939696e-8
1.186,-5.992179563651945e-8
1.187,-5.975292594051496e-8
1.188,-5.957976756398864e-8
1.189,-5.940100045176422e-8
1.19,-5.921458379187783e-8
1.191,-5.901883115555506e-8
1.192,-5.8811745473619226e-8
1.193,-5.8608032427187595e-8
1.194,-5.844314598935085e-8
1.195,-5.8278819214940825e-8
1.196,-5.8114707379708364e-8
1.197,-5.794937940617473e-8
1.198,-5.778202649686648e-8
1.199,-5.7611371784282994e-8
1.2,-5.7436293610102496e-8
1.201,-5.7254841201448414e-8
1.202,-5.706604611077637e-8
1.203,-5.6867442310704064e-8
1.204,-5.6702943229680614e-8
1.205,-5.654397994270255e-8
1.206,-5.6385323188301584e-8
1.207,-5.62254256486483e-8
1.208,-5.606378594702477e-8
1.209,-5.5898970230394696e-8
1.21,-5.5729851289321175e-8
1.211,-5.555499027476429e-8
1.212,-5.5373212570763997e-8
1.213,-5.5182248548391044e-8
1.214,-5.500495192656274e-8
1.215,-5.48500475039404e-8
1.216,-5.469538266744678e-8
1.217,-5.454047580233379e-8
1.218,-5.4384687087072336e-8
1.219,-5.422676019328776e-8
1.22,-5.406522018969184e-8
1.221,-5.3899279817137824e-8
1.222,-5.3727363003019946e-8
1.223,-5.354810417301792e-8
1.224,-5.3364733743066495e-8
1.225,-5.3214209705387816e-8
1.226,-5.306439354590964e-8
1.227,-5.291433036180848e-8
1.228,-5.276399883680227e-8
1.229,-5.261140201273662e-8
1.23,-5.245605849690804e-8
1.231,-5.229664579164961e-8
1.232,-5.213220755084791e-8
1.233,-5.196116614758495e-8
1.234,-5.178204931510777e-8
1.235,-5.161551464016867e-8
1.236,-5.145557924191024e-8
1.237,-5.1294776315380375e-8
1.238,-5.113323731098518e-8
1.239,-5.097110122864734e-8
1.24,-5.0807478779724136e-8
1.241,-5.0643205184996987e-8
1.242,-5.047725670781489e-8
1.243,-5.031033900593229e-8
1.244,-5.0141701346539946e-8
1.245,-4.9974542171149494e-8
1.246,-4.981287549110647e-8
1.247,-4.965296573899991e-8
1.248,-4.949520193697765e-8
1.249,-4.933984643074041e-8
1.25,-4.918760543315415e-8
1.251,-4.9038913485510705e-8
1.252,-4.8893810000727456e-8
1.253,-4.875373260659899e-8
1.254,-4.8618530090749346e-8
1.255,-4.8489589898892405e-8
1.256,-4.834833911004921e-8
1.257,-4.820692633966672e-8
1.258,-4.80655073520353e-8
1.259,-4.7924392454490317e-8
1.26,-4.7782819923014586e-8
1.261,-4.764108951782475e-8
1.262,-4.749827531291828e-8
1.263,-4.735409431244619e-8
1.264,-4.720886381814893e-8
1.265,-4.706151479627607e-8
1.266,-4.692497379554794e-8
1.267,-4.6800256892076675e-8
1.268,-4.667760677978805e-8
1.269,-4.655667673603148e-8
1.27,-4.6437020340128754e-8
1.271,-4.631787464681736e-8
1.272,-4.619915383585749e-8
1.273,-4.60794721268698e-8
1.274,-4.595791780470648e-8
1.275,-4.583377866129723e-8
1.276,-4.570629097422341e-8
1.277,-4.557422983442194e-8
1.278,-4.543636777931681e-8
1.279,-4.529157071608836e-8
1.28,-4.5138466631122753e-8
1.281,-4.49760276799438e-8
1.282,-4.4802038967617364e-8
1.283,-4.461589575566194e-8
1.284,-4.441527845511217e-8
1.285,-4.42988119520038e-8
1.286,-4.4199741644490587e-8
1.287,-4.410248832797947e-8
1.288,-4.400625319700424e-8
1.289,-4.3910342362174504e-8
1.29,-4.381390650287642e-8
1.291,-4.371629991339887e-8
1.292,-4.3616470879470626e-8
1.293,-4.3513255221228064e-8
1.294,-4.340549120129822e-8
1.295,-4.329227631938437e-8
1.296,-4.3172086905407525e-8
1.297,-4.3043761333017017e-8
1.298,-4.290603239365254e-8
1.299,-4.275696063871237e-8
1.3,-4.259569497122584e-8
1.301,-4.2420296053613527e-8
1.302,-4.222892779903731e-8
1.303,-4.204215475756001e-8
1.304,-4.1959480001629856e-8
1.305,-4.187888225093417e-8
1.306,-4.179881785137951e-8
1.307,-4.1718520971123496e-8
1.308,-4.1637070458122594e-8
1.309,-4.155385802118161e-8
1.31,-4.1467439371167814e-8
1.311,-4.1376844506224586e-8
1.312,-4.1281099871781635e-8
1.313,-4.117881691190206e-8
1.314,-4.106928219727024e-8
1.315,-4.095032646311836e-8
1.316,-4.082092708301843e-8
1.317,-4.067990033718161e-8
1.318,-4.052539037679992e-8
1.319,-4.035575129623936e-8
1.32,-4.0169538584322595e-8
1.321,-3.9965158293853165e-8
1.322,-3.980956675420089e-8
1.323,-3.972863638068702e-8
1.324,-3.964861106098283e-8
1.325,-3.956940575200463e-8
1.326,-3.9489572500883696e-8
1.327,-3.9408815433183975e-8
1.328,-3.9326159551045237e-8
1.329,-3.924057911941503e-8
1.33,-3.915120627695501e-8
1.331,-3.905716872143472e-8
1.332,-3.895707445522589e-8
1.333,-3.884989929758831e-8
1.334,-3.873482545824203e-8
1.335,-3.8610409869299644e-8
1.336,-3.8474949559663685e-8
1.337,-3.8327835238938235e-8
1.338,-3.8167006111144985e-8
1.339,-3.7991481072197075e-8
1.34,-3.7799456342746396e-8
1.341,-3.7690156995395796e-8
1.342,-3.7610922487552045e-8
1.343,-3.7532297159081907e-8
1.344,-3.745373111652128e-8
1.345,-3.7374518813138025e-8
1.346,-3.729426345522313e-8
1.347,-3.721179353544102e-8
1.348,-3.7126299368139826e-8
1.349,-3.703717854630639e-8
1.35,-3.694335792836512e-8
1.351,-3.6843772477368475e-8
1.352,-3.673745352372748e-8
1.353,-3.6623594379392443e-8
1.354,-3.650070279359596e-8
1.355,-3.6367872380260735e-8
1.356,-3.622387367840929e-8
1.357,-3.606701659553124e-8
1.358,-3.5896485339748097e-8
1.359,-3.5718323188049794e-8
1.36,-3.56391047784399e-8
1.361,-3.556085481637439e-8
1.362,-3.548351001914085e-8
1.363,-3.5406070519883315e-8
1.364,-3.532805437078679e-8
1.365,-3.524903513518751e-8
1.366,-3.5167856737849945e-8
1.367,-3.5084506855298514e-8
1.368,-3.4997622799792794e-8
1.369,-3.490656919069579e-8
1.37,-3.481055088627727e-8
1.371,-3.47085205021358e-8
1.372,-3.459947417461251e-8
1.373,-3.4482571908966975e-8
1.374,-3.435696838138824e-8
1.375,-3.4220884681523955e-8
1.376,-3.4073996180161714e-8
1.377,-3.3914472230556214e-8
1.378,-3.3778673302897744e-8
1.379,-3.3702916346634026e-8
1.38,-3.362801248574243e-8
1.381,-3.355336097854433e-8
1.382,-3.347882016058179e-8
1.383,-3.340358467607274e-8
1.384,-3.332699538560746e-8
1.385,-3.32486622678374e-8
1.386,-3.316755992077702e-8
1.387,-3.308323959227977e-8
1.388,-3.299505357823307e-8
1.389,-3.290182082338333e-8
1.39,-3.2802887961480565e-8
1.391,-3.269739390354687e-8
1.392,-3.2584574261029786e-8
1.393,-3.246331092832122e-8
1.394,-3.2333053123778654e-8
1.395,-3.219184063762981e-8
1.396,-3.203959564324066e-8
1.397,-3.193773534526656e-8
1.398,-3.18661557141553e-8
1.399,-3.179554008969632e-8
1.4,-3.172569795761859e-8
1.401,-3.1655656429485646e-8
1.402,-3.158527828173163e-8
1.403,-3.151400751466582e-8
1.404,-3.144113314146324e-8
1.405,-3.136620330135287e-8
1.406,-3.128876957525506e-8
1.407,-3.1207855522019656e-8
1.408,-3.1122706301012215e-8
1.409,-3.1032968861310906e-8
1.41,-3.093746825388877e-8
1.411,-3.083564470429678e-8
1.412,-3.072621845845447e-8
1.413,-3.060941566879194e-8
1.414,-3.048332664068454e-8
1.415,-3.034729600948083e-8
1.416,-3.020013983334735e-8
1.417,-3.004162230091367e-8
1.418,-2.9869778983560025e-8
1.419,-2.968390455659886e-8
1.42,-2.948312427530908e-8
1.421,-2.9266111312153953e-8
1.422,-2.9031736681339737e-8
1.423,-2.8869947654719397e-8
1.424,-2.87703777468451e-8
1.425,-2.8669799867486745e-8
1.426,-2.8567476495489075e-8
1.427,-2.8462977308407744e-8
1.428,-2.835561507819051e-8
1.429,-2.8245120353709297e-8
1.43,-2.8130854867747246e-8
1.431,-2.801177045874681e-8
1.432,-2.788754349669631e-8
1.433,-2.7757638410008667e-8
1.434,-2.7620954745621873e-8
1.435,-2.7476546593518947e-8
1.436,-2.732455506304632e-8
1.437,-2.7163359339610338e-8
1.438,-2.6992321044971845e-8
1.439,-2.681023547612682e-8
1.44,-2.661698850214833e-8
1.441,-2.641105822931422e-8
1.442,-2.6191392388241752e-8
1.443,-2.5957257121511645e-8
1.444,-2.570785528899222e-8
1.445,-2.544177402086234e-8
1.446,-2.5157860128466325e-8
1.447,-2.4855526192801847e-8
1.448,-2.4532944564725767e-8
1.449,-2.4299789735948707e-8
1.45,-2.4181582958249237e-8
1.451,-2.4066732162708604e-8
1.452,-2.3955522676644136e-8
1.453,-2.3847256946929463e-8
1.454,-2.3741967503099204e-8
1.455,-2.363894791024279e-8
1.456,-2.353803063570581e-8
1.457,-2.3439186369600407e-8
1.458,-2.3341613863969712e-8
1.459,-2.324477188508922e-8
1.46,-2.3148844396914114e-8
1.461,-2.305266810775919e-8
1.462,-2.295605983082538e-8
1.463,-2.285848155203496e-8
1.464,-2.275907740045824e-8
1.465,-2.265777299115257e-8
1.466,-2.2553505840683385e-8
1.467,-2.2446153380428768e-8
1.468,-2.233464813095054e-8
1.469,-2.2218346940050537e-8
1.47,-2.209670668662511e-8
1.471,-2.196892745498502e-8
1.472,-2.1834204111392808e-8
1.473,-2.1692100449222096e-8
1.474,-2.1541396333368823e-8
1.475,-2.143371180540754e-8
1.476,-2.1408043782145114e-8
1.477,-2.1387283943852253e-8
1.478,-2.1371301284212052e-8
1.479,-2.1359816027022305e-8
1.48,-2.1352182355549587e-8
1.481,-2.1348633638673675e-8
1.482,-2.1347744683097858e-8
1.483,-2.1350115009255433e-8
1.484,-2.1355048285265354e-8
1.485,-2.1361690194510174e-8
1.486,-2.13701177864678e-8
1.487,-2.1379531367493598e-8
1.488,-2.1389334081689526e-8
1.489,-2.1399399696697685e-8
1.49,-2.1408927408650413e-8
1.491,-2.1417111639721043e-8
1.492,-2.142351451794866e-8
1.493,-2.1427853713618106e-8
1.494,-2.1428910090826037e-8
1.495,-2.1426505458777e-8
1.496,-2.1419836682134985e-8
1.497,-2.1407786321425704e-8
1.498,-2.1390180404701198e-8
1.499,-2.1366109104192788e-8
1.5,-2.133461651787627e-8
1.501,-2.1318377174672776e-8
1.502,-2.1353028012427444e-8
1.503,-2.138703036891343e-8
1.504,-2.1420409335171087e-8
1.505,-2.145215061144512e-8
1.506,-2.148191291517776e-8
1.507,-2.150909783615873e-8
1.508,-2.1533161365105968e-8
1.509,-2.1553920093175805e-8
1.51,-2.156988943013971e-8
1.511,-2.1581145981386385e-8
1.512,-2.1587094445330024e-8
1.513,-2.1586251786054333e-8
1.514,-2.157879375186411e-8
1.515,-2.1563765217891273e-8
1.516,-2.1540251804452737e-8
1.517,-2.1507863046110742e-8
1.518,-2.14653235186546e-8
1.519,-2.141224364482497e-8
1.52,-2.134781784679518e-8
1.521,-2.1271132966127482e-8
1.522,-2.1181594811459092e-8
1.523,-2.1078026213317003e-8
1.524,-2.0959523006069958e-8
1.525,-2.0825639324151268e-8
1.526,-2.0675049561269532e-8
1.527,-2.0533427624869205e-8
1.528,-2.048416125610686e-8
1.529,-2.0434411718284196e-8
1.53,-2.038428337236553e-8
1.531,-2.0334179451353407e-8
1.532,-2.0284334878439836e-8
1.533,-2.0234603881341684e-8
1.534,-2.0185705773556606e-8
1.535,-2.013767252950771e-8
1.536,-2.0090830443741936e-8
1.537,-2.0044969240018418e-8
1.538,-2.0001161060712036e-8
1.539,-1.9959330299634814e-8
1.54,-1.9919521254685435e-8
1.541,-1.9882614332722426e-8
1.542,-1.9848679921885548e-8
1.543,-1.9817679719480452e-8
1.544,-1.9790693306376284e-8
1.545,-1.976765162670091e-8
1.546,-1.9749037738492348e-8
1.547,-1.973515351139099e-8
1.548,-1.9726664635122404e-8
1.549,-1.9723686239814242e-8
1.55,-1.972701202390681e-8
1.551,-1.973693075640881e-8
1.552,-1.975389085639989e-8
1.553,-1.9770818204811746e-8
1.554,-1.9733061851212597e-8
1.555,-1.9694224695498974e-8
1.556,-1.9654411542724404e-8
1.557,-1.9613435653376143e-8
1.558,-1.9571090636993915e-8
1.559,-1.9527438888111703e-8
1.56,-1.948230787807148e-8
1.561,-1.9435659970312713e-8
1.562,-1.9387623839683954e-8
1.563,-1.9338039503047355e-8
1.564,-1.9286934493933927e-8
1.565,-1.9234035697479612e-8
1.566,-1.9179667964941416e-8
1.567,-1.9123449157554262e-8
1.568,-1.9065331091638882e-8
1.569,-1.9005237161806576e-8
1.57,-1.8943575486041198e-8
1.571,-1.887979628190095e-8
1.572,-1.881403710601859e-8
1.573,-1.874646704536076e-8
1.574,-1.8676492352653895e-8
1.575,-1.8604838891711495e-8
1.576,-1.8531010170796947e-8
1.577,-1.8454896277830812e-8
1.578,-1.837671359528059e-8
1.579,-1.829644613593473e-8
1.58,-1.8229091680588283e-8
1.581,-1.816155659195573e-8
1.582,-1.8094048148675768e-8
1.583,-1.8026605652643468e-8
1.584,-1.7959223330699103e-8
1.585,-1.789253767370269e-8
1.586,-1.7825802722803985e-8
1.587,-1.775990099428526e-8
1.588,-1.7694849141491886e-8
1.589,-1.7630687465519657e-8
1.59,-1.7567621246605825e-8
1.591,-1.750567657499147e-8
1.592,-1.7444836020175103e-8
1.593,-1.7385934802938152e-8
1.594,-1.7328635304458828e-8
1.595,-1.7273294794506455e-8
1.596,-1.7219916048638595e-8
1.597,-1.716889408420741e-8
1.598,-1.7120475370724364e-8
1.599,-1.7074782698855984e-8
1.6,-1.7032204202571677e-8
1.601,-1.6992633078416475e-8
1.602,-1.695639806342797e-8
1.603,-1.6923787149458747e-8
1.604,-1.6895114862691685e-8
1.605,-1.6870969288262927e-8
1.606,-1.682067274355603e-8
1.607,-1.67683592566803e-8
1.608,-1.67165161713001e-8
1.609,-1.666472349004522e-8
1.61,-1.661306703315546e-8
1.611,-1.656170767194709e-8
1.612,-1.6510478428877207e-8
1.613,-1.645918690229564e-8
1.614,-1.6408090997011016e-8
1.615,-1.6357527221622092e-8
1.616,-1.6306926142739542e-8
1.617,-1.6256485713128654e-8
1.618,-1.6205953690118235e-8
1.619,-1.6155793591821066e-8
1.62,-1.6106029843143688e-8
1.621,-1.6056246110451866e-8
1.622,-1.6006891589981365e-8
1.623,-1.595772181062216e-8
1.624,-1.5908458661506586e-8
1.625,-1.5859805690965345e-8
1.626,-1.581134101424908e-8
1.627,-1.5763094940446365e-8
1.628,-1.5715441614716497e-8
1.629,-1.566779472828017e-8
1.63,-1.562058582482706e-8
1.631,-1.5573760059339747e-8
1.632,-1.5526000929355632e-8
1.633,-1.5477944703690127e-8
1.634,-1.5430106858893566e-8
1.635,-1.5382341067571303e-8
1.636,-1.5335078984435313e-8
1.637,-1.5287996091295497e-8
1.638,-1.5241209960770163e-8
1.639,-1.5194544511487607e-8
1.64,-1.5148252652252836e-8
1.641,-1.5102301742508928e-8
1.642,-1.505673086210635e-8
1.643,-1.501155133531995e-8
1.644,-1.4966783701275688e-8
1.645,-1.4922636792924493e-8
1.646,-1.4878812182317347e-8
1.647,-1.4835502160082115e-8
1.648,-1.4792813085584555e-8
1.649,-1.4750827004306188e-8
1.65,-1.470953248094986e-8
1.651,-1.4668839143361367e-8
1.652,-1.462888588044109e-8
1.653,-1.4589724872671184e-8
1.654,-1.4551849170096887e-8
1.655,-1.4514620505501341e-8
1.656,-1.4478262810868614e-8
1.657,-1.4443064522140503e-8
1.658,-1.4402753656383993e-8
1.659,-1.4360741484864548e-8
1.66,-1.431863816403478e-8
1.661,-1.4276544724189932e-8
1.662,-1.4234733280993339e-8
1.663,-1.419284989534475e-8
1.664,-1.4150760674347396e-8
1.665,-1.4108920365352162e-8
1.666,-1.4067213061075279e-8
1.667,-1.4025636430048394e-8
1.668,-1.3984095104113692e-8
1.669,-1.394265658483107e-8
1.67,-1.3901705675500864e-8
1.671,-1.3860138370347386e-8
1.672,-1.3819136501780349e-8
1.673,-1.3778283958210125e-8
1.674,-1.3737797122104212e-8
1.675,-1.3697330492057347e-8
1.676,-1.365726776114684e-8
1.677,-1.3617228677986759e-8
1.678,-1.3577464930136784e-8
1.679,-1.3538447030114753e-8
1.68,-1.349934608541048e-8
1.681,-1.3460959347177948e-8
1.682,-1.3422898126336236e-8
1.683,-1.3385351937955647e-8
1.684,-1.3348312899452708e-8
1.685,-1.3311879487609701e-8
1.686,-1.327601351075458e-8
1.687,-1.3240684104687261e-8
1.688,-1.3206116644681742e-8
1.689,-1.3172192669941296e-8
1.69,-1.3139317966981423e-8
1.691,-1.3107082641461432e-8
1.692,-1.307601094069355e-8
1.693,-1.3045755697937977e-8
1.694,-1.3009597510382775e-8
1.695,-1.2971461016419994e-8
1.696,-1.2933326520858657e-8
1.697,-1.2895423506797954e-8
1.698,-1.2857557241119366e-8
1.699,-1.2819987849077563e-8
1.7,-1.278276196003958e-8
1.701,-1.2745494659682777e-8
1.702,-1.2708669783201287e-8
1.703,-1.2672136118219157e-8
1.704,-1.2635843704700278e-8
1.705,-1.2599978393978972e-8
1.706,-1.2564198681452865e-8
1.707,-1.2529294712848582e-8
1.708,-1.249459546937004e-8
1.709,-1.2460501519484524e-8
1.71,-1.2427192386255115e-8
1.711,-1.2394066772891676e-8
1.712,-1.2361905721292032e-8
1.713,-1.233049318205559e-8
1.714,-1.2299549156935541e-8
1.715,-1.2269510185625165e-8
1.716,-1.2240540026020597e-8
1.717,-1.2212380440246307e-8
1.718,-1.2185267350695028e-8
1.719,-1.2158815843044124e-8
1.72,-1.2133921756252164e-8
1.721,-1.211017042201945e-8
1.722,-1.2087704392982346e-8
1.723,-1.2066454835313323e-8
1.724,-1.2046901698425927e-8
1.725,-1.2028327556201646e-8
1.726,-1.2011812655643439e-8
1.727,-1.1996721727136617e-8
1.728,-1.1983435244111718e-8
1.729,-1.1971917346365046e-8
1.73,-1.1947643652199247e-8
1.731,-1.191882503803754e-8
1.732,-1.1890086248911302e-8
1.733,-1.186147702281204e-8
1.734,-1.1832733681771401e-8
1.735,-1.1804260791059562e-8
1.736,-1.1775985520046106e-8
1.737,-1.1747363859448967e-8
1.738,-1.1719038295332496e-8
1.739,-1.1690760137739176e-8
1.74,-1.166253493778413e-8
1.741,-1.1634672336668928e-8
1.742,-1.1606745453640599e-8
1.743,-1.1579103786907297e-8
1.744,-1.1551256617892136e-8
1.745,-1.1523948462155431e-8
1.746,-1.1496941065836097e-8
1.747,-1.1470133065571986e-8
1.748,-1.1443735958849288e-8
1.749,-1.141727212772281e-8
1.75,-1.1391458776266461e-8
1.751,-1.1365697605292269e-8
1.752,-1.1340903882661735e-8
1.753,-1.131610427584917e-8
1.754,-1.129161597557271e-8
1.755,-1.126781246085784e-8
1.756,-1.1244738695737055e-8
1.757,-1.122212789361754e-8
1.758,-1.1200215865869723e-8
1.759,-1.1178665770827934e-8
1.76,-1.1158073465189489e-8
1.761,-1.1138451383452264e-8
1.762,-1.111933389807973e-8
1.763,-1.1101292440862665e-8
1.764,-1.1084164253105655e-8
1.765,-1.106793257044103e-8
1.766,-1.1041618064311365e-8
1.767,-1.1011824341267129e-8
1.768,-1.0981480169647284e-8
1.769,-1.0950938267306753e-8
1.77,-1.0919939397169287e-8
1.771,-1.0888761892147159e-8
1.772,-1.0857070464886931e-8
1.773,-1.0824909635331892e-8
1.774,-1.0792593263531103e-8
1.775,-1.0759885427091831e-8
1.776,-1.0726449728437615e-8
1.777,-1.0692855711980087e-8
1.778,-1.0659264026990911e-8
1.779,-1.0624817137205866e-8
1.78,-1.0590272103705445e-8
1.781,-1.055541987149411e-8
1.782,-1.052011300295419e-8
1.783,-1.0484741741478842e-8
1.784,-1.0448718112954225e-8
1.785,-1.0412821493943625e-8
1.786,-1.0376279613311112e-8
1.787,-1.033959529106454e-8
1.788,-1.0302906416903568e-8
1.789,-1.0265592487179731e-8
1.79,-1.0228499158770887e-8
1.791,-1.0191293697836556e-8
1.792,-1.0153654361744202e-8
1.793,-1.0115997484128059e-8
1.794,-1.0078134105029335e-8
1.795,-1.0040613118711406e-8
1.796,-1.0002703887401765e-8
1.797,-9.964671754403298e-9
1.798,-9.927158317601936e-9
1.799,-9.889314478428446e-9
1.8,-9.851709448227552e-9
1.801,-9.81419101542258e-9
1.802,-9.773998832507402e-9
1.803,-9.732996630873458e-9
1.804,-9.691713764858889e-9
1.805,-9.65012525444564e-9
1.806,-9.608756013079756e-9
1.807,-9.567274195099174e-9
1.808,-9.525746635929977e-9
1.809,-9.484161234141197e-9
1.81,-9.442535975345834e-9
1.811,-9.401284084553652e-9
1.812,-9.359909958206458e-9
1.813,-9.318882887576763e-9
1.814,-9.278079748931134e-9
1.815,-9.237459019928451e-9
1.816,-9.19700515744637e-9
1.817,-9.156945757204937e-9
1.818,-9.117164356808871e-9
1.819,-9.077947282776222e-9
1.82,-9.039138659794332e-9
1.821,-9.000767464684145e-9
1.822,-8.963151443275308e-9
1.823,-8.925964523065488e-9
1.824,-8.889689095958886e-9
1.825,-8.854105004729718e-9
1.826,-8.819026064976754e-9
1.827,-8.785178695625007e-9
1.828,-8.75217398554895e-9
1.829,-8.720116517757504e-9
1.83,-8.689097552583291e-9
1.831,-8.659436501190498e-9
1.832,-8.630758552286011e-9
1.833,-8.603185608357933e-9
1.834,-8.577337173854005e-9
1.835,-8.552770269787402e-9
1.836,-8.529588813033229e-9
1.837,-8.507982429684091e-9
1.838,-8.478153068480765e-9
1.839,-8.446267574235833e-9
1.84,-8.415126484528912e-9
1.841,-8.38418190429735e-9
1.842,-8.353975844421768e-9
1.843,-8.324144928906207e-9
1.844,-8.295101161515106e-9
1.845,-8.266717310689842e-9
1.846,-8.238959625650466e-9
1.847,-8.211937907454114e-9
1.848,-8.185590649745222e-9
1.849,-8.160210285268477e-9
1.85,-8.135500495498604e-9
1.851,-8.111989080461512e-9
1.852,-8.088990144372588e-9
1.853,-8.067368995057222e-9
1.854,-8.046414978757355e-9
1.855,-8.026600051280752e-9
1.856,-8.00781219112423e-9
1.857,-7.990188066742121e-9
1.858,-7.973954052609145e-9
1.859,-7.95864796288015e-9
1.86,-7.94498455913839e-9
1.861,-7.932483891970321e-9
1.862,-7.92141507943711e-9
1.863,-7.911634014590163e-9
1.864,-7.903651177976201e-9
1.865,-7.897185461125389e-9
1.866,-7.892150266641806e-9
1.867,-7.88881460156432e-9
1.868,-7.887426711761236e-9
1.869,-7.887916209092793e-9
1.87,-7.890041175961926e-9
1.871,-7.894120468421306e-9
1.872,-7.900195941878962e-9
1.873,-7.908404153766924e-9
1.874,-7.90261600602804e-9
1.875,-7.892584030777527e-9
1.876,-7.88215870350939e-9
1.877,-7.871654994495714e-9
1.878,-7.860296413753076e-9
1.879,-7.848602101567792e-9
1.88,-7.836212123635278e-9
1.881,-7.82328324344661e-9
1.882,-7.809403568259654e-9
1.883,-7.794782708181458e-9
1.884,-7.779161870224982e-9
1.885,-7.762439468983473e-9
1.886,-7.744772934081823e-9
1.887,-7.725802331215448e-9
1.888,-7.705372007116296e-9
1.889,-7.683589653417755e-9
1.89,-7.660454492963709e-9
1.891,-7.635815091333598e-9
1.892,-7.609205820990894e-9
1.893,-7.580783889515885e-9
1.894,-7.550657543653472e-9
1.895,-7.51835638190812e-9
1.896,-7.484044162175962e-9
1.897,-7.44745809466707e-9
1.898,-7.408498925443041e-9
1.899,-7.367013221681873e-9
1.9,-7.323155526428593e-9
1.901,-7.2765158343202074e-9
1.902,-7.227044185320608e-9
1.903,-7.174585814340162e-9
1.904,-7.118986067311539e-9
1.905,-7.060246498546974e-9
1.906,-6.998321255835549e-9
1.907,-6.932999063735679e-9
1.908,-6.863871471196603e-9
1.909,-6.791197382227665e-9
1.91,-6.756045944911193e-9
1.911,-6.730430102130924e-9
1.912,-6.70507460664993e-9
1.913,-6.679844233303811e-9
1.914,-6.654905293501656e-9
1.915,-6.6303242896026404e-9
1.916,-6.605546221116754e-9
1.917,-6.581100664426742e-9
1.918,-6.556642229149645e-9
1.919,-6.532183127738733e-9
1.92,-6.507841376901524e-9
1.921,-6.483475978313891e-9
1.922,-6.4588917547681035e-9
1.923,-6.434366484064924e-9
1.924,-6.409752950631287e-9
1.925,-6.384913930901348e-9
1.926,-6.3598094568462216e-9
1.927,-6.3346105028116995e-9
1.928,-6.308914168862145e-9
1.929,-6.282893760811703e-9
1.93,-6.256301476881276e-9
1.931,-6.2296191538635526e-9
1.932,-6.202187985415719e-9
1.933,-6.174223132759948e-9
1.934,-6.145591813222495e-9
1.935,-6.11645634140956e-9
1.936,-6.086471326938181e-9
1.937,-6.055600354493151e-9
1.938,-6.024319265662825e-9
1.939,-5.991714124853331e-9
1.94,-5.958056048527283e-9
1.941,-5.9234105398431325e-9
1.942,-5.8877381858835065e-9
1.943,-5.851055084882262e-9
1.944,-5.81301506930032e-9
1.945,-5.773421296595416e-9
1.946,-5.753961640486693e-9
1.947,-5.7399073272179635e-9
1.948,-5.726445428955174e-9
1.949,-5.71354918932343e-9
1.95,-5.701347727260497e-9
1.951,-5.689764326355373e-9
1.952,-5.678924108742933e-9
1.953,-5.66859725825708e-9
1.954,-5.658808532871262e-9
1.955,-5.649529399853748e-9
1.956,-5.640944711338136e-9
1.957,-5.632973643088235e-9
1.958,-5.625020227384425e-9
1.959,-5.617732057316971e-9
1.96,-5.610876208095306e-9
1.961,-5.604423258809277e-9
1.962,-5.598146168850349e-9
1.963,-5.592322382952375e-9
1.964,-5.5866712367347304e-9
1.965,-5.581422324318908e-9
1.966,-5.5758768713332074e-9
1.967,-5.571305861096221e-9
1.968,-5.5660727138473476e-9
1.969,-5.561348048743753e-9
1.97,-5.556582416410549e-9
1.971,-5.551594628450118e-9
1.972,-5.546567427572313e-9
1.973,-5.54147405740224e-9
1.974,-5.536393676841556e-9
1.975,-5.530830571309764e-9
1.976,-5.52522272379008e-9
1.977,-5.51934276060706e-9
1.978,-5.512952983011132e-9
1.979,-5.506029854274175e-9
1.98,-5.498694610750476e-9
1.981,-5.491086474407325e-9
1.982,-5.490306542732526e-9
1.983,-5.4911268865254215e-9
1.984,-5.4922286718550595e-9
1.985,-5.49311462982871e-9
1.986,-5.494175336906437e-9
1.987,-5.495074506534081e-9
1.988,-5.495887522855014e-9
1.989,-5.496851196440389e-9
1.99,-5.497518107411281e-9
1.991,-5.498022703775973e-9
1.992,-5.498025812400442e-9
1.993,-5.4981746933080444e-9
1.994,-5.497821753408516e-9
1.995,-5.496838539897908e-9
1.996,-5.495663812915552e-9
1.997,-5.49385581471995e-9
1.998,-5.491440413507576e-9
1.999,-5.488498322492319e-9
2,-5.485308762764873e-9
2.001,-5.480813358715864e-9
2.002,-5.475656039699572e-9
2.003,-5.470073283220245e-9
2.004,-5.463258179183583e-9
2.005,-5.455550899924333e-9
2.006,-5.446870399161696e-9
2.007,-5.4373975322263846e-9
2.008,-5.4265383298002234e-9
2.009,-5.414364734335209e-9
2.01,-5.401220692924369e-9
2.011,-5.386557200282027e-9
2.012,-5.37076316753371e-9
2.013,-5.353085974491023e-9
2.014,-5.3342815720114345e-9
2.015,-5.3137972910732856e-9
2.016,-5.291822757769182e-9
2.017,-5.2678567064035065e-9
2.018,-5.258193769286379e-9
2.019,-5.251062362710002e-9
2.02,-5.243819156675045e-9
2.021,-5.236077016412821e-9
2.022,-5.228270594237472e-9
2.023,-5.219593979255421e-9
2.024,-5.210748166284418e-9
2.025,-5.201335695481646e-9
2.026,-5.1916427823428535e-9
2.027,-5.1810215007108695e-9
2.028,-5.1703721304363626e-9
2.029,-5.158526161785915e-9
2.03,-5.146443271542012e-9
2.031,-5.1335713457945076e-9
2.032,-5.119886514748373e-9
2.033,-5.105465716859214e-9
2.034,-5.0902236869987405e-9
2.035,-5.074078157640827e-9
2.036,-5.057320562329437e-9
2.037,-5.0395008166503885e-9
2.038,-5.02043628891613e-9
2.039,-5.000618918948874e-9
2.04,-4.979863965637321e-9
2.041,-4.957569244012916e-9
2.042,-4.934385455790391e-9
2.043,-4.909867068469964e-9
2.044,-4.8842918598523966e-9
2.045,-4.857280022640964e-9
2.046,-4.82874062956995e-9
2.047,-4.7988577556168366e-9
2.048,-4.76760009249233e-9
2.049,-4.734941660977654e-9
2.05,-4.700646094590866e-9
2.051,-4.664683528332603e-9
2.052,-4.6270257625380395e-9
2.053,-4.587647151055307e-9
2.054,-4.5670783821449845e-9
2.055,-4.550542054282403e-9
2.056,-4.534012054691061e-9
2.057,-4.517820340055323e-9
2.058,-4.5018354599690724e-9
2.059,-4.4859743697500676e-9
2.06,-4.470214420848606e-9
2.061,-4.4546798472211435e-9
2.062,-4.43918402037724e-9
2.063,-4.424067667763154e-9
2.064,-4.408779452624856e-9
2.065,-4.3938630511775045e-9
2.066,-4.378927442871827e-9
2.067,-4.364254069244566e-9
2.068,-4.349609894482853e-9
2.069,-4.335014680556526e-9
2.07,-4.320751534336864e-9
2.071,-4.306383583063678e-9
2.072,-4.292082134149666e-9
2.073,-4.277981413558507e-9
2.074,-4.263731034903628e-9
2.075,-4.249576024406565e-9
2.076,-4.235270911756572e-9
2.077,-4.221101690404794e-9
2.078,-4.206729409261811e-9
2.079,-4.1926438987260894e-9
2.08,-4.178297152712673e-9
2.081,-4.1638710257529965e-9
2.082,-4.1492809188525825e-9
2.083,-4.13450107483726e-9
2.084,-4.1198150446675186e-9
2.085,-4.1048833221424275e-9
2.086,-4.089884098057439e-9
2.087,-4.074477533144716e-9
2.088,-4.0590519834182714e-9
2.089,-4.043420487320759e-9
2.09,-4.0306021853453444e-9
2.091,-4.018748223089119e-9
2.092,-4.006985410143216e-9
2.093,-3.995697772651852e-9
2.094,-3.983940066731861e-9
2.095,-3.9725590594841265e-9
2.096,-3.961224903648031e-9
2.097,-3.9501527604457465e-9
2.098,-3.938949055815044e-9
2.099,-3.927870362296915e-9
2.1,-3.91693388834824e-9
2.101,-3.906023171573736e-9
2.102,-3.8949903302665234e-9
2.103,-3.884177313118187e-9
2.104,-3.873375731267004e-9
2.105,-3.862601904991436e-9
2.106,-3.851954977207583e-9
2.107,-3.841132412141235e-9
2.108,-3.830481043465284e-9
2.109,-3.819692784290396e-9
2.11,-3.808787729653318e-9
2.111,-3.7980758538225246e-9
2.112,-3.787570146407404e-9
2.113,-3.7765317539850685e-9
2.114,-3.7657431617432735e-9
2.115,-3.754607291739376e-9
2.116,-3.743747756246307e-9
2.117,-3.7327170243628416e-9
2.118,-3.7215027726134053e-9
2.119,-3.710167950643495e-9
2.12,-3.698947814712028e-9
2.121,-3.6873851749774644e-9
2.122,-3.67569941150947e-9
2.123,-3.6639427047902018e-9
2.124,-3.6521770052644342e-9
2.125,-3.6399209202286897e-9
2.126,-3.629567535412548e-9
2.127,-3.6194017782875676e-9
2.128,-3.6093865674047265e-9
2.129,-3.5992938629547666e-9
2.13,-3.589293640082758e-9
2.131,-3.5792921959654223e-9
2.132,-3.569179729545624e-9
2.133,-3.5594651670578514e-9
2.134,-3.549604499220038e-9
2.135,-3.5396678921273406e-9
2.136,-3.529923131573298e-9
2.137,-3.5200020676029453e-9
2.138,-3.510052359878557e-9
2.139,-3.5004141807348788e-9
2.14,-3.490896904878582e-9
2.141,-3.4810927473927222e-9
2.142,-3.4714168206662066e-9
2.143,-3.4617052557806005e-9
2.144,-3.4521880909466063e-9
2.145,-3.4425785555569632e-9
2.146,-3.4329373788111184e-9
2.147,-3.423368810651084e-9
2.148,-3.4140121840664506e-9
2.149,-3.404382331595457e-9
2.15,-3.395071668244043e-9
2.151,-3.3856735193182885e-9
2.152,-3.3764482321174683e-9
2.153,-3.367016776500975e-9
2.154,-3.3577853830735194e-9
2.155,-3.348554544757576e-9
2.156,-3.339599818907857e-9
2.157,-3.3303487745328653e-9
2.158,-3.3214726524732896e-9
2.159,-3.312476959393962e-9
2.16,-3.3035427726701982e-9
2.161,-3.294471140335986e-9
2.162,-3.2840117292209925e-9
2.163,-3.27276383771391e-9
2.164,-3.2615821154990954e-9
2.165,-3.2501055180489402e-9
2.166,-3.2382752035431395e-9
2.167,-3.226645395315586e-9
2.168,-3.214512100946365e-9
2.169,-3.2022027252054386e-9
2.17,-3.189769670619569e-9
2.171,-3.1772102726534968e-9
2.172,-3.1642981568325013e-9
2.173,-3.1513194276300283e-9
2.174,-3.1380760212584846e-9
2.175,-3.124416836364219e-9
2.176,-3.1108590148321014e-9
2.177,-3.0967639563783678e-9
2.178,-3.0826167174424768e-9
2.179,-3.068073906042912e-9
2.18,-3.0530830086306082e-9
2.181,-3.0383230376074266e-9
2.182,-3.0230922209995015e-9
2.183,-3.0073655787887787e-9
2.184,-2.991370595673004e-9
2.185,-2.9754216868127514e-9
2.186,-2.9587837735434164e-9
2.187,-2.942015409068688e-9
2.188,-2.924981257201864e-9
2.189,-2.9074946894525056e-9
2.19,-2.8899204140842016e-9
2.191,-2.8719983058422827e-9
2.192,-2.8533977403100153e-9
2.193,-2.834606882551327e-9
2.194,-2.8154947262493124e-9
2.195,-2.7963736881631007e-9
2.196,-2.7763550347614796e-9
2.197,-2.7562585547258323e-9
2.198,-2.7402966562561915e-9
2.199,-2.725267900238748e-9
2.2,-2.7104513078413106e-9
2.201,-2.6956840093461665e-9
2.202,-2.681282640359939e-9
2.203,-2.6669617625429964e-9
2.204,-2.6529127783447848e-9
2.205,-2.6392528162944018e-9
2.206,-2.6259537877493244e-9
2.207,-2.6126885099841957e-9
2.208,-2.599935711167234e-9
2.209,-2.587620007155067e-9
2.21,-2.57572718709298e-9
2.211,-2.564369716573367e-9
2.212,-2.553161793095171e-9
2.213,-2.542662858040501e-9
2.214,-2.5324667918269483e-9
2.215,-2.5230697531242186e-9
2.216,-2.5139929027417907e-9
2.217,-2.505508023276093e-9
2.218,-2.4977484525123828e-9
2.219,-2.490546324729337e-9
2.22,-2.484068839514464e-9
2.221,-2.478241167835904e-9
2.222,-2.472797078212352e-9
2.223,-2.4688917577009306e-9
2.224,-2.4650450569652094e-9
2.225,-2.4622393013373767e-9
2.226,-2.460484482824654e-9
2.227,-2.45976339297016e-9
2.228,-2.459648373864809e-9
2.229,-2.460569858975248e-9
2.23,-2.4624545735818515e-9
2.231,-2.465453730060574e-9
2.232,-2.4692693445516056e-9
2.233,-2.474608629121633e-9
2.234,-2.472323012980837e-9
2.235,-2.4694348788045772e-9
2.236,-2.466649107191188e-9
2.237,-2.464177417671465e-9
2.238,-2.461922776753056e-9
2.239,-2.459629167006483e-9
2.24,-2.458014458639468e-9
2.241,-2.4562361033986235e-9
2.242,-2.4545404597731135e-9
2.243,-2.4533203246690505e-9
2.244,-2.4521379371478247e-9
2.245,-2.4509561047381112e-9
2.246,-2.4498495454494673e-9
2.247,-2.4493447270401703e-9
2.248,-2.4486169758475285e-9
2.249,-2.448138469723915e-9
2.25,-2.448003355581818e-9
2.251,-2.4477928572963492e-9
2.252,-2.4475389492906174e-9
2.253,-2.4474340332147904e-9
2.254,-2.4475614868180173e-9
2.255,-2.447728464360921e-9
2.256,-2.447851588094352e-9
2.257,-2.448101943386405e-9
2.258,-2.4484844152183882e-9
2.259,-2.4490569572321874e-9
2.26,-2.4491889627498153e-9
2.261,-2.4497096573483645e-9
2.262,-2.450185720981324e-9
2.263,-2.450655567365345e-9
2.264,-2.4511460638976246e-9
2.265,-2.4515798280333456e-9
2.266,-2.4519748453855073e-9
2.267,-2.4523983954694017e-9
2.268,-2.4528580278015966e-9
2.269,-2.4529470676881715e-9
2.27,-2.4516800811724693e-9
2.271,-2.449996094888718e-9
2.272,-2.448082514483474e-9
2.273,-2.44604270172033e-9
2.274,-2.4433185474848074e-9
2.275,-2.44080067268726e-9
2.276,-2.437768764629311e-9
2.277,-2.4344882776361487e-9
2.278,-2.4308636215053525e-9
2.279,-2.4269039000657244e-9
2.28,-2.4226138872762704e-9
2.281,-2.417743671934147e-9
2.282,-2.412661959105833e-9
2.283,-2.4070663240394197e-9
2.284,-2.400705079175225e-9
2.285,-2.3944672911113685e-9
2.286,-2.387475772636094e-9
2.287,-2.3800024173681322e-9
2.288,-2.3718936814631775e-9
2.289,-2.3634738610667227e-9
2.29,-2.354487271816197e-9
2.291,-2.344888616612195e-9
2.292,-2.3346359290243868e-9
2.293,-2.323839454199117e-9
2.294,-2.3124043790900828e-9
2.295,-2.3002328930488147e-9
2.296,-2.2873820615387785e-9
2.297,-2.273967014687628e-9
2.298,-2.259733178355816e-9
2.299,-2.2449498926491174e-9
2.3,-2.229414430843235e-9
2.301,-2.2127712995256843e-9
2.302,-2.195601367382949e-9
2.303,-2.1774924086059855e-9
2.304,-2.1587159837466174e-9
2.305,-2.1389143789463105e-9
2.306,-2.1185081466867928e-9
2.307,-2.0965749136792056e-9
2.308,-2.0742613182633818e-9
2.309,-2.062364279353801e-9
2.31,-2.053180292449497e-9
2.311,-2.04398897807323e-9
2.312,-2.0349217866311164e-9
2.313,-2.026068535165848e-9
2.314,-2.0173549497570775e-9
2.315,-2.0088680718899354e-9
2.316,-2.0004284895236424e-9
2.317,-1.992228826352971e-9
2.318,-1.9840916687385857e-9
2.319,-1.9761542402463306e-9
2.32,-1.9683987773078115e-9
2.321,-1.960907991538363e-9
2.322,-1.9535044692986503e-9
2.323,-1.9460181244213004e-9
2.324,-1.939312266330262e-9
2.325,-1.932375370827799e-9
2.326,-1.925922310519468e-9
2.327,-1.919253311832847e-9
2.328,-1.9129758888070114e-9
2.329,-1.907016766722336e-9
2.33,-1.9011986429617878e-9
2.331,-1.895716139621584e-9
2.332,-1.8899745102274323e-9
2.333,-1.884836620114072e-9
2.334,-1.8798187451096737e-9
2.335,-1.875106625526257e-9
2.336,-1.8706834969961506e-9
2.337,-1.8662676959380065e-9
2.338,-1.862260123886017e-9
2.339,-1.8580648131205635e-9
2.34,-1.8544956681409985e-9
2.341,-1.851117925610879e-9
2.342,-1.8480165175915886e-9
2.343,-1.8448590433095546e-9
2.344,-1.8425481140837974e-9
2.345,-1.840148589060675e-9
2.346,-1.8382465549748872e-9
2.347,-1.8367567466981427e-9
2.348,-1.8353294439776846e-9
2.349,-1.8343987440161413e-9
2.35,-1.8335137852432126e-9
2.351,-1.832999974027416e-9
2.352,-1.8328799589184541e-9
2.353,-1.8326454798156533e-9
2.354,-1.833198481904219e-9
2.355,-1.8336753226932956e-9
2.356,-1.8345548413734036e-9
2.357,-1.8357033670923784e-9
2.358,-1.8369760157455062e-9
2.359,-1.8387062983293845e-9
2.36,-1.8407546598098179e-9
2.361,-1.8428742976084322e-9
2.362,-1.8453976124988003e-9
2.363,-1.8480289520894644e-9
2.364,-1.8511459032310995e-9
2.365,-1.8544565882905317e-9
2.366,-1.8580295080283804e-9
2.367,-1.8619823460852558e-9
2.368,-1.866128584993021e-9
2.369,-1.870585686347681e-9
2.37,-1.8750072605655532e-9
2.371,-1.8800848655686764e-9
2.372,-1.8850587757412995e-9
2.373,-1.89072191236761e-9
2.374,-1.896419243863079e-9
2.375,-1.902578428136792e-9
2.376,-1.908853075605066e-9
2.377,-1.9152670560629304e-9
2.378,-1.9221380043177305e-9
2.379,-1.9266337414336476e-9
2.38,-1.92818117028537e-9
2.381,-1.929308157677667e-9
2.382,-1.930039239539383e-9
2.383,-1.9308116216976146e-9
2.384,-1.9313360910544475e-9
2.385,-1.931581561365192e-9
2.386,-1.931420023915109e-9
2.387,-1.930971160746253e-9
2.388,-1.9301070741661874e-9
2.389,-1.9289555508450462e-9
2.39,-1.9272738960296465e-9
2.391,-1.92539761911803e-9
2.392,-1.923094461453445e-9
2.393,-1.9203321155458752e-9
2.394,-1.9170273146684735e-9
2.395,-1.913467384540013e-9
2.396,-1.909253533050048e-9
2.397,-1.9047252663995096e-9
2.398,-1.8995891526429887e-9
2.399,-1.893978085476533e-9
2.4,-1.887802802968963e-9
2.401,-1.881143352200354e-9
2.402,-1.8738133267248713e-9
2.403,-1.8660458733776863e-9
2.404,-1.8574437543605882e-9
2.405,-1.8483923280854242e-9
2.406,-1.8384004318861003e-9
2.407,-1.8280619240584883e-9
2.408,-1.8170264182160167e-9
2.409,-1.8051736772051186e-9
2.41,-1.7928787343635122e-9
2.411,-1.7793422291134675e-9
2.412,-1.7656194284398907e-9
2.413,-1.750750211471086e-9
2.414,-1.7374340854914294e-9
2.415,-1.7298066312676497e-9
2.416,-1.7219146108971017e-9
2.417,-1.714291708587723e-9
2.418,-1.7063254142968276e-9
2.419,-1.6986587692002786e-9
2.42,-1.690314110902591e-9
2.421,-1.6821385395715538e-9
2.422,-1.673837290994129e-9
2.423,-1.6653671774946588e-9
2.424,-1.6571612970750493e-9
2.425,-1.6484060783028553e-9
2.426,-1.6398349345081442e-9
2.427,-1.6311069162000535e-9
2.428,-1.6223337118148606e-9
2.429,-1.613429279068157e-9
2.43,-1.604561705725871e-9
2.431,-1.595539811383162e-9
2.432,-1.5861678637207888e-9
2.433,-1.5768760741607935e-9
2.434,-1.5677337206199127e-9
2.435,-1.5582811707659516e-9
2.436,-1.5486960602828503e-9
2.437,-1.5389858276648738e-9
2.438,-1.529532389632493e-9
2.439,-1.5196232050485037e-9
2.44,-1.509839031577087e-9
2.441,-1.5000430897416095e-9
2.442,-1.489938727949891e-9
2.443,-1.4800571879192148e-9
2.444,-1.4697870698299198e-9
2.445,-1.4594582209426221e-9
2.446,-1.4490310062953426e-9
2.447,-1.438469343639781e-9
2.448,-1.4279942783801403e-9
2.449,-1.4175708384911445e-9
2.45,-1.4104150070082255e-9
2.451,-1.4031823480920025e-9
2.452,-1.3963051825882644e-9
2.453,-1.3894874140163438e-9
2.454,-1.3831179535017668e-9
2.455,-1.3769476669978076e-9
2.456,-1.3707404100671283e-9
2.457,-1.3650861552250149e-9
2.458,-1.3597413195398644e-9
2.459,-1.3544153576461326e-9
2.46,-1.3491229244877445e-9
2.461,-1.3444555468922204e-9
2.462,-1.3400193177304232e-9
2.463,-1.335775601241096e-9
2.464,-1.3318515179605583e-9
2.465,-1.328108734099942e-9
2.466,-1.324665377389067e-9
2.467,-1.3215460947790802e-9
2.468,-1.3189714875849745e-9
2.469,-1.3163422574180572e-9
2.47,-1.3143492960665526e-9
2.471,-1.3123330200315309e-9
2.472,-1.3107842589121788e-9
2.473,-1.309668373750128e-9
2.474,-1.3087942951628406e-9
2.475,-1.3082847027945377e-9
2.476,-1.3081096206235543e-9
2.477,-1.3082833705269081e-9
2.478,-1.3090345474253695e-9
2.479,-1.309912733837848e-9
2.48,-1.3111974839219442e-9
2.481,-1.3128016451702251e-9
2.482,-1.314952591258134e-9
2.483,-1.3172543056327868e-9
2.484,-1.3199823456488957e-9
2.485,-1.3195197157145344e-9
2.486,-1.3188824476983996e-9
2.487,-1.3182483993290361e-9
2.488,-1.3177977598033408e-9
2.489,-1.3172896107249699e-9
2.49,-1.3168022228171594e-9
2.491,-1.3164020984390845e-9
2.492,-1.316221687197583e-9
2.493,-1.315655695499629e-9
2.494,-1.315503039833743e-9
2.495,-1.3153742539628865e-9
2.496,-1.3150276423345986e-9
2.497,-1.3147481991993004e-9
2.498,-1.3146056465629385e-9
2.499,-1.3144170196710547e-9
2.5,-1.3142010812927651e-9
2.501,-1.3138767851472721e-9
2.502,-1.3136755017129076e-9
2.503,-1.3134078269416705e-9
2.504,-1.3129906051290163e-9
2.505,-1.3129718423599002e-9
2.506,-1.312480679693806e-9
2.507,-1.3122731790105036e-9
2.508,-1.3117964492437295e-9
2.509,-1.3113857777469207e-9
2.51,-1.3108538698958228e-9
2.511,-1.3103761409283265e-9
2.512,-1.3098725437643566e-9
2.513,-1.3089486161632635e-9
2.514,-1.308301800229117e-9
2.515,-1.3073306881494773e-9
2.516,-1.3062625425774854e-9
2.517,-1.3053806924290257e-9
2.518,-1.3043419677671864e-9
2.519,-1.3030131418290125e-9
2.52,-1.2983167874125456e-9
2.521,-1.2920466918586726e-9
2.522,-1.2855473352502145e-9
2.523,-1.2789708181415449e-9
2.524,-1.2722154441036082e-9
2.525,-1.2650738234754044e-9
2.526,-1.2578070807123254e-9
2.527,-1.2504624002929177e-9
2.528,-1.2428371665151872e-9
2.529,-1.2349277156431526e-9
2.53,-1.2270477967035731e-9
2.531,-1.2188331455220691e-9
2.532,-1.210284317210153e-9
2.533,-1.201711063991695e-9
2.534,-1.1930114673930348e-9
2.535,-1.1843410696599221e-9
2.536,-1.1754399675822924e-9
2.537,-1.1662563137448956e-9
2.538,-1.1569969426972193e-9
2.539,-1.1476628536399858e-9
2.54,-1.1383070042114696e-9
2.541,-1.1284598810945567e-9
2.542,-1.1188483473034694e-9
2.543,-1.1089558160648494e-9
2.544,-1.099037527652058e-9
2.545,-1.089046297586549e-9
2.546,-1.0788256954441522e-9
2.547,-1.0686835860695965e-9
2.548,-1.058468090953113e-9
2.549,-1.0481768786263501e-9
2.55,-1.0377064763034127e-9
2.551,-1.0272658279575353e-9
2.552,-1.0166980590753383e-9
2.553,-1.0062617405992569e-9
2.554,-9.954926882826953e-10
2.555,-9.813290180460399e-10
2.556,-9.63797708308789e-10
2.557,-9.46081324393333e-10
2.558,-9.279731427724869e-10
2.559,-9.093655828351643e-10
2.56,-8.902616421835319e-10
2.561,-8.709730714429043e-10
2.562,-8.512931470860963e-10
2.563,-8.312690535916545e-10
2.564,-8.111656901732545e-10
2.565,-7.902540843929273e-10
2.566,-7.691044467961206e-10
2.567,-7.475104979448588e-10
2.568,-7.256255596388428e-10
2.569,-7.035051430293038e-10
2.57,-6.812000963307696e-10
2.571,-6.583985578956231e-10
2.572,-6.353583215101821e-10
2.573,-6.117185646914436e-10
2.574,-5.881516385031205e-10
2.575,-5.641425104840891e-10
2.576,-5.394266144875814e-10
2.577,-5.147861026344458e-10
2.578,-4.898547123488584e-10
2.579,-4.64687621715143e-10
2.58,-4.391803587466825e-10
2.581,-4.1343506396174234e-10
2.582,-3.8729841556062183e-10
2.583,-3.6081870824489215e-10
2.584,-3.3431268864347885e-10
2.585,-3.072537779758022e-10
2.586,-2.8001223562057476e-10
2.587,-2.526368003685775e-10
2.588,-2.2497304019708508e-10
2.589,-1.9722723454407287e-10
2.59,-1.7420853648530965e-10
2.591,-1.602975530090589e-10
2.592,-1.4718470886521118e-10
2.593,-1.3429934941910915e-10
2.594,-1.2200651600124957e-10
2.595,-1.1019929413436103e-10
2.596,-9.929590483181983e-11
2.597,-8.867340195450879e-11
2.598,-7.879585872672124e-11
2.599,-6.925249262934585e-11
2.6,-6.045730582826536e-11
2.601,-5.245770484663126e-11
2.602,-4.4687586964187176e-11
2.603,-3.740541210106585e-11
2.604,-3.107636370458522e-11
2.605,-2.523714570656921e-11
2.606,-1.998901044686363e-11
2.607,-1.543454253294385e-11
2.608,-1.1214362771738706e-11
2.609,-7.843725668976731e-12
2.61,-5.116240764380109e-12
2.611,-2.928990383566088e-12
2.612,-1.2273515537231106e-12
2.613,-4.817257703848554e-13
2.614,-7.005507285384738e-14
2.615,-4.5441428397907657e-13
2.616,-1.5868417690967362e-12
2.617,-3.0533353623241055e-12
2.618,-5.2128301675224975e-12
2.619,-8.275491403253454e-12
2.62,-1.1826761792121943e-11
2.621,-1.5863199642751624e-11
2.622,-2.0908164088950798e-11
2.623,-2.6493363058932573e-11
2.624,-3.282452087915999e-11
2.625,-3.7740699454502646e-11
2.626,-3.494415867777434e-11
2.627,-3.240929746795018e-11
2.628,-2.9828139957999156e-11
2.629,-2.740363491682274e-11
2.63,-2.5086377419825112e-11
2.631,-2.3085089395635805e-11
2.632,-2.098188289778591e-11
2.633,-1.893196710511802e-11
2.634,-1.735467325403306e-11
2.635,-1.5677015241521985e-11
2.636,-1.4155787653180596e-11
2.637,-1.2950640559949989e-11
2.638,-1.1800782573345714e-11
2.639,-1.0964784635802971e-11
2.64,-9.82036674201936e-12
2.641,-9.043543691689138e-12
2.642,-8.528844297472915e-12
2.643,-8.276268559370692e-12
2.644,-7.923661726749742e-12
2.645,-7.83306752794033e-12
2.646,-8.004485962942454e-12
2.647,-8.231748616083223e-12
2.648,-8.826273045769994e-12
2.649,-9.474643292151086e-12
2.65,-1.0282108497960962e-11
2.651,-1.1301737323776706e-11
2.652,-1.2479239863694147e-11
2.653,-1.4073742171660797e-11
2.654,-1.5466405933750593e-11
2.655,-1.7172152588784684e-11
2.656,-1.9035550913315546e-11
2.657,-2.1320278875691656e-11
2.658,-2.3917756664104672e-11
2.659,-2.6361357541304642e-11
2.66,-2.935396370418175e-11
2.661,-3.115552260624099e-11
2.662,-3.326683373217065e-11
2.663,-3.5417113686264656e-11
2.664,-3.7707059696856504e-11
2.665,-4.017508548059823e-11
2.666,-4.260913843978642e-11
2.667,-4.526179431252331e-11
2.668,-4.822797716741434e-11
2.669,-5.092770649639533e-11
2.67,-5.4134141613815245e-11
2.671,-5.7265303610165574e-11
2.672,-6.073275216067486e-11
2.673,-6.385147965914939e-11
2.674,-6.739031555014208e-11
2.675,-7.129596912847092e-11
2.676,-7.492984011037152e-11
2.677,-7.886169495208151e-11
2.678,-8.27669044412005e-11
2.679,-8.69534444447595e-11
2.68,-9.130629585740735e-11
2.681,-9.572043158101451e-11
2.682,-1.0023071261855421e-10
2.683,-1.048358067023969e-10
2.684,-1.0962830643279631e-10
2.685,-1.147603123641261e-10
2.686,-1.1928424914486868e-10
2.687,-1.244940817102247e-10
2.688,-1.2986423048033657e-10
2.689,-1.3506906704208177e-10
2.69,-1.4052392582897255e-10
2.691,-1.4616274857104372e-10
2.692,-1.5172119116613203e-10
2.693,-1.5771051131707736e-10
2.694,-1.639124391772384e-10
2.695,-1.6959722515252906e-10
2.696,-1.7584589340202683e-10
2.697,-1.8192003459205353e-10
2.698,-1.883873057551e-10
2.699,-1.9487345070956508e-10
2.7,-2.0153079205442737e-10
2.701,-2.0829438174274628e-10
2.702,-2.1510904169019796e-10
2.703,-2.2211910088998366e-10
2.704,-2.2921453624036303e-10
2.705,-2.363372830771482e-10
2.706,-2.4363244754965763e-10
2.707,-2.5114688106953054e-10
2.708,-2.587635661299714e-10
2.709,-2.66119015712718e-10
2.71,-2.739257709549747e-10
2.711,-2.818187905262448e-10
2.712,-2.897825313041835e-10
2.713,-2.9792279754303763e-10
2.714,-3.0591085220521563e-10
2.715,-3.141078508406281e-10
2.716,-3.22503468375146e-10
2.717,-3.310399732114888e-10
2.718,-3.3939695498474975e-10
2.719,-3.4819003236208346e-10
2.72,-3.569951001480831e-10
2.721,-3.6575520390158545e-10
2.722,-3.7471892255780404e-10
2.723,-3.838284134971559e-10
2.724,-3.9302305854249653e-10
2.725,-4.0229708453409785e-10
2.726,-4.115875418264636e-10
2.727,-4.2104397746101085e-10
2.728,-4.302954659252123e-10
2.729,-4.402166409178676e-10
2.73,-4.4981462998805455e-10
2.731,-4.5661852077216736e-10
2.732,-4.611157011780165e-10
2.733,-4.658565755377708e-10
2.734,-4.703248901449797e-10
2.735,-4.746223414286987e-10
2.736,-4.789602048305142e-10
2.737,-4.828162314396423e-10
2.738,-4.867658498497462e-10
2.739,-4.902913630644434e-10
2.74,-4.939613162946443e-10
2.741,-4.971577594048426e-10
2.742,-5.002396274988996e-10
2.743,-5.031606242766884e-10
2.744,-5.059203056489991e-10
2.745,-5.084135334953999e-10
2.746,-5.104892064622391e-10
2.747,-5.128183433456002e-10
2.748,-5.146290060764613e-10
2.749,-5.162286154103413e-10
2.75,-5.174120021322892e-10
2.751,-5.188024454483298e-10
2.752,-5.195719410266975e-10
2.753,-5.20241072443639e-10
2.754,-5.20495979650093e-10
2.755,-5.20648413271374e-10
2.756,-5.206008957259201e-10
2.757,-5.201941100096974e-10
2.758,-5.193766527966659e-10
2.759,-5.187243967696986e-10
2.76,-5.173511619105398e-10
2.761,-5.158848903619173e-10
2.762,-5.140639025569271e-10
2.763,-5.118900858747111e-10
2.764,-5.096755240074913e-10
2.765,-5.067435360217587e-10
2.766,-5.037245065508955e-10
2.767,-5.005096337384884e-10
2.768,-4.965344801988181e-10
2.769,-4.926768992774555e-10
2.77,-4.882111381832033e-10
2.771,-4.835044586926074e-10
2.772,-4.78397987890844e-10
2.773,-4.728994973390854e-10
2.774,-4.672642273106931e-10
2.775,-4.61077176439062e-10
2.776,-4.5465331499627837e-10
2.777,-4.476813364462373e-10
2.778,-4.403173381462011e-10
2.779,-4.3282077921702466e-10
2.78,-4.248823515240474e-10
2.781,-4.1645287218727844e-10
2.782,-4.073725801134742e-10
2.783,-3.982199014984644e-10
2.784,-3.886254651419563e-10
2.785,-3.7843916889102047e-10
2.786,-3.6776337530852743e-10
2.787,-3.571192230822362e-10
2.788,-3.4562386286296487e-10
2.789,-3.336940723741577e-10
2.79,-3.215926414057435e-10
2.791,-3.0879887535917305e-10
2.792,-2.95623303614434e-10
2.793,-2.8196533996549533e-10
2.794,-2.67876831827607e-10
2.795,-2.532054566017905e-10
2.796,-2.382621877572433e-10
2.797,-2.226295814367063e-10
2.798,-2.065723148092502e-10
2.799,-1.9003687512508805e-10
2.8,-1.7307744126782154e-10
2.801,-1.6198509200648914e-10
2.802,-1.650394265695354e-10
2.803,-1.6886103626490012e-10
2.804,-1.7316026390545858e-10
2.805,-1.7739809621275526e-10
2.806,-1.8242551913516536e-10
2.807,-1.8769918952443732e-10
2.808,-1.9334778222912519e-10
2.809,-1.9950496810139384e-10
2.81,-2.0619128626719885e-10
2.811,-2.1328250277008465e-10
2.812,-2.205901017404699e-10
2.813,-2.2845780822677852e-10
2.814,-2.36802910613676e-10
2.815,-2.4555102395851236e-10
2.816,-2.548826705250917e-10
2.817,-2.6461599578198047e-10
2.818,-2.748253846718285e-10
2.819,-2.855922165423408e-10
2.82,-2.967323053937321e-10
2.821,-3.086930711049263e-10
2.822,-3.206110932296724e-10
2.823,-3.333449072329131e-10
2.824,-3.4671066018177044e-10
2.825,-3.6058378505288147e-10
2.826,-3.748283905480321e-10
2.827,-3.896326594698962e-10
2.828,-4.0506786813665485e-10
2.829,-4.211101467532785e-10
2.83,-4.3768411117639516e-10
2.831,-4.5465808895528426e-10
2.832,-4.722627844344629e-10
2.833,-4.905299499924354e-10
2.834,-5.093755417462376e-10
2.835,-5.289836346733523e-10
2.836,-5.490190524426453e-10
2.837,-5.696065841220843e-10
2.838,-5.908284972377942e-10
2.839,-6.127098828301314e-10
2.84,-6.351184023145606e-10
2.841,-6.582892009276975e-10
2.842,-6.823019926827101e-10
2.843,-7.065545926110417e-10
2.844,-7.318056161054187e-10
2.845,-7.571927529426148e-10
2.846,-7.836798987526095e-10
2.847,-8.108756999192224e-10
2.848,-8.387571748258438e-10
2.849,-8.670343332184416e-10
2.85,-8.96204332967443e-10
2.851,-9.26342336171615e-10
2.852,-9.567491243700488e-10
2.853,-9.879158602288385e-10
2.854,-1.0200773559176923e-9
2.855,-1.0528433680434546e-9
2.856,-1.0861390675742655e-9
2.857,-1.120398218645846e-9
2.858,-1.155186724055568e-9
2.859,-1.1907864694293835e-9
2.86,-1.227226098521328e-9
2.861,-1.264632509823116e-9
2.862,-1.302773000588786e-9
2.863,-1.3413611332779851e-9
2.864,-1.3811005672437204e-9
2.865,-1.4214415200441977e-9
2.866,-1.4623109390043965e-9
2.867,-1.5043011281079544e-9
2.868,-1.5471810499434469e-9
2.869,-1.5907177797203076e-9
2.87,-1.6351419107607512e-9
2.871,-1.6802226276979582e-9
2.872,-1.6918211276362172e-9
2.873,-1.7007931729651204e-9
2.874,-1.7090302506517219e-9
2.875,-1.716754072234039e-9
2.876,-1.7236140292808955e-9
2.877,-1.7298806831433922e-9
2.878,-1.7351039494073461e-9
2.879,-1.7398116280986642e-9
2.88,-1.7435534127585584e-9
2.881,-1.74654712914446e-9
2.882,-1.7485998204946895e-9
2.883,-1.7498305027174865e-9
2.884,-1.7501963212041005e-9
2.885,-1.7498670290549967e-9
2.886,-1.748389433231523e-9
2.887,-1.7461421197850768e-9
2.888,-1.742975319629636e-9
2.889,-1.7388070983059833e-9
2.89,-1.7335929358708313e-9
2.891,-1.7278156683175894e-9
2.892,-1.7203977131785564e-9
2.893,-1.7126497997566048e-9
2.894,-1.7034429422579933e-9
2.895,-1.693515772061005e-9
2.896,-1.6825744131310216e-9
2.897,-1.6701049432299442e-9
2.898,-1.6569051686232683e-9
2.899,-1.6426254800805395e-9
2.9,-1.6271717306892697e-9
2.901,-1.6106085354294919e-9
2.902,-1.5930049501733379e-9
2.903,-1.5739041181461744e-9
2.904,-1.5538378361767968e-9
2.905,-1.5325080093830934e-9
2.906,-1.5101886408075416e-9
2.907,-1.4864770525591098e-9
2.908,-1.4618011245914886e-9
2.909,-1.435550678330344e-9
2.91,-1.408260286162033e-9
2.911,-1.3795742326294658e-9
2.912,-1.349614642265351e-9
2.913,-1.318343656464549e-9
2.914,-1.2858205611365747e-9
2.915,-1.2519063563587451e-9
2.916,-1.2166657681333959e-9
2.917,-1.1799553556457454e-9
2.918,-1.141840955121154e-9
2.919,-1.102490987392457e-9
2.92,-1.0616100221128022e-9
2.921,-1.0194652899642165e-9
2.922,-9.757106234076218e-10
2.923,-9.305108905621751e-10
2.924,-8.839874388044677e-10
2.925,-8.357367020650486e-10
2.926,-7.860790907088244e-10
2.927,-7.350358099955656e-10
2.928,-6.823532849864478e-10
2.929,-6.283065179246705e-10
2.93,-5.721322304808041e-10
2.931,-5.149836113105266e-10
2.932,-4.5593795405807214e-10
2.933,-3.953704030834615e-10
2.934,-3.3304115021337566e-10
2.935,-2.693723022417771e-10
2.936,-2.0355028773622053e-10
2.937,-1.3625855999066516e-10
2.938,-6.762057580544933e-11
2.939,3.2905900226865015e-12
2.94,7.56282814151632e-11
2.941,1.4964185446331157e-10
2.942,1.848688979677604e-10
2.943,1.917969116860263e-10
2.944,1.9772716797206158e-10
2.945,2.0241563980505362e-10
2.946,2.0607926476401417e-10
2.947,2.080591254838282e-10
2.948,2.091979922624887e-10
2.949,2.0878143658364934e-10
2.95,2.0718549098575068e-10
2.951,2.043222258052424e-10
2.952,1.9994239597309615e-10
2.953,1.9442070176012294e-10
2.954,1.8735812901127247e-10
2.955,1.7881840452815823e-10
2.956,1.6881751552233482e-10
2.957,1.5731127511742216e-10
2.958,1.4457657293576176e-10
2.959,1.300010099569704e-10
2.96,1.1412004674582477e-10
2.961,9.611056395186779e-11
2.962,7.713185645741305e-11
2.963,5.615752307619459e-11
2.964,3.351208199831035e-11
2.965,9.417688850987815e-12
2.966,-1.6582735185011188e-11
2.967,-4.442202161669684e-11
2.968,-7.388123446361305e-11
2.969,-1.0504752623319291e-10
2.97,-1.3791090491821478e-10
2.971,-1.729789644855373e-10
2.972,-2.096647300220411e-10
2.973,-2.483174776912733e-10
2.974,-2.88981394369614e-10
2.975,-3.313800345239315e-10
2.976,-3.7596636914827286e-10
2.977,-4.2252168430678694e-10
2.978,-4.709297396487955e-10
2.979,-5.213321996322406e-10
2.98,-5.741838116080089e-10
2.981,-6.286371423414039e-10
2.982,-6.854643519460524e-10
2.983,-7.444954652768843e-10
2.984,-8.057139400108326e-10
2.985,-8.687938146678675e-10
2.986,-9.34404331687233e-10
2.987,-1.002110505687881e-9
2.988,-1.0721615817388397e-9
2.989,-1.144491501570144e-9
2.99,-1.2191915255144181e-9
2.991,-1.2959888717745116e-9
2.992,-1.3756512595719528e-9
2.993,-1.4574391693500388e-9
2.994,-1.541489269563101e-9
2.995,-1.6281584969135565e-9
2.996,-1.717170294845971e-9
2.997,-1.8090340336840427e-9
2.998,-1.9030058640012726e-9
2.999,-1.999645671268979e-9
3,-2.098733742350589e-9
3.0000000006000214,-2.098780038650716e-9
3.0000000006000214,-4.229715432346737e-7
3.000483535413287,-0.06784719955373664
3.000483535413287,-0.06783856214704176
3.0008724068775363,0.09200641737651705
3.0008724068775363,0.09200641737651705
3.001,0.067278304007299
3.002,-0.06195456212307415
3.003,0.04741716163958237
3.004,0.04666768324393766
3.005,-0.09367336048896141
3.006,0.10754951142863378
3.007,-0.08933752477965919
3.008,0.04650225370269462
3.009,-0.008515364860336605
3.01,-0.0081151013772576
3.011,0.023668590782580656
3.012,-0.03390034513494267
3.013,0.004263525334217144
3.0134429957479645,-0.00557443703855931
3.0134429957479645,-0.005565799621784162
3.013922619700825,0.04512161331242781
3.013922619700825,0.04512161331242781
3.014,0.02169514677993023
3.015,0.027922626028040742
3.016,0.007184031620173281
3.017,0.010203902647272778
3.017368026363122,0.008895530324998402
3.017368026363122,0.008895530324998402
3.018,0.007290782719683919
3.018488860529027,0.007029220219166132
3.018488860529027,0.007029220219166132
3.019,0.004078816808866376
3.02,-0.0015943175946558363
3.021,0.0024298550404220354
3.02105184704751,0.0015382566981802029
3.02105184704751,0.0015382566981802029
3.022,-0.002413806761628723
3.0223657387478693,-0.004593629284958184
3.0223657387478693,-0.004593629284958184
3.023,-0.004307649690237059
3.024,-0.0063438280218423015
3.025,-0.00810817300250083
3.026,-0.01377013023891327
3.027,-0.021253709005966237
3.0278452333521892,-0.041290339156781486
3.0278452333521892,-0.04129033915673874
3.028,-0.050551105921355144
3.028329847985473,-0.1344919672846599
3.028329847985473,-0.13448332988190814
3.029,-0.14911884609529025
3.03,0.1512055709725879
3.031,-0.11140829242501399
3.032,0.06662168280147623
3.033,-0.018492582664373425
3.034,-0.016006485706523244
3.035,0.03657910199658565
3.035856877109815,-0.003240811669208893
3.035856877109815,-0.003240811669208893
3.036,-0.041929126417540374
3.036977710667985,0.032176412168388846
3.036977710667985,0.032176412168388846
3.037,0.029332403711615884
3.038,-0.019327886907908265
3.039,1.7318610374644772e-4
3.04,0.0011181965729894494
3.041,-0.015118217079293172
3.0412881659013076,0.002187579647431881
3.0412881659013076,0.0021962170651422808
3.0417678413850444,-0.1099700260566665
3.0417678413850444,-0.1099700260566665
3.042,0.08520049549964037
3.0421036807578994,0.21179146415801942
3.0421036807578994,-2.9816961533205926
3.042976086532063,1.260711200514075
3.042976086532063,11.934045900170407
3.043,12.25752185912912
3.044,-4.976194644138703
3.045,-4.955058065666885
3.046,6.616167799957569
3.047,-0.17197909429175523
3.048,-4.437331576073264
3.049,2.1648673322733343
3.05,2.024009352480725
3.051,-2.424511814809331
3.052,-0.0538613474157561
3.053,1.5858163767294449
3.054,-1.0517897170707795
3.0543457181804046,0.47026263889116593
3.0543457181804046,0.47026263889116593
3.055,-0.20246788361798995
3.0554665511752455,0.9434128592237075
3.0554665511752455,0.9434128592237075
3.0556904440132997,-0.8350527228489724
3.0556904440132997,-0.8350527228489288
3.056,0.6595593748680663
3.0561664210048454,0.2982740396169623
3.0561664210048454,0.29828267704436484
3.057,-0.7769055184231131
3.058,0.5669048742159957
3.059,-0.28349164817746697
3.06,0.02827483170817227
3.061,0.1614226136251559
3.062,-0.24474753886508988
3.063,0.23798689099335446
3.0631555022474686,0.009101137508405951
3.0631555022474686,-327.3258161190608
3.0633281855360996,-91.74982481202085
3.0633281855360996,-91.74981628095324
3.06380382306979,-224.494181296041
3.06380382306979,-224.49418984265773
3.0639921348760346,-251.08410176969943
3.0639921348760346,-251.0840932172493
3.064,-236.83823037876346
3.064469392424546,-89.77872092562262
3.064469392424546,598.3292090692627
3.0645369559290128,185.094978078303
3.0645369559290128,185.0949695101241
3.0647017804135626,-575.3160984630382
3.0647017804135626,-575.3161068816236
3.0647542486642645,-560.5593038589556
3.0647542486642645,-560.5592954429585
3.064939733977554,319.42086859164897
3.064939733977554,319.4208771706456
3.065,563.1107276197503
3.0651370516283802,272.52378007118966
3.0651370516283802,272.5237714872374
3.065292610535435,-445.5244086483456
3.065292610535435,-445.5244170373477
3.0653935914160475,-509.7331072560186
3.0653935914160475,-509.73309887223905
3.0655877063316557,367.65079125465223
3.0655877063316557,367.6507998488536
3.065765786764975,257.04127275894643
3.065765786764975,257.0412641609065
3.066,-492.9664780713219
3.066174745136794,184.3146376511317
3.066174745136794,184.31464625735225
3.066426366530415,84.07844884345258
3.066426366530415,84.07844023284193
3.066773198217745,73.4050650852603
3.066773198217745,73.40507370157411
3.067,251.19104697096475
3.0670390796576763,92.72562630885271
3.0670390796576763,92.72561768860392
3.0674268353376872,164.042845371307
3.0674268353376872,164.04285399651167
3.0676365454288548,165.18332230890977
3.0676365454288548,165.18331368142407
3.068,-31.99446733355241
3.0680549527571204,134.7687878173377
3.0680549527571204,134.76879644886822
3.06830133596675,46.04339947079818
3.06830133596675,46.04339083738425
3.0686333712215434,-1.9075671831582532
3.0686333712215434,-1.9075585475966328
3.0689571529527044,-58.708013608981844
3.0689571529527044,-58.708022245893986
3.069,-158.28377053002197
3.0692377332706995,-26.838434779747026
3.0692377332706995,-26.838426141985032
3.069556474090675,-17.604190501200563
3.069556474090675,-17.60419913931068
3.0696130416349146,-142.71942890123464
3.0696130416349146,-142.71942890123464
3.069871093749188,12.247260439642371
3.069871093749188,12.247269077548602
3.07,222.99610515941214
3.070182469202372,-35.78036735934599
3.070182469202372,-35.7803759965781
3.0704523229817213,-59.968679096897475
3.0704523229817213,-59.96867046070175
3.070871701540192,-151.52631561408063
3.070871701540192,-151.52632424782118
3.070989701915204,-150.3288473815778
3.070989701915204,-150.32883874867647
3.071,-139.30603001757163
3.071520742398702,-162.45039395464437
3.071520742398702,-162.45040258281966
3.0715553275894036,-158.3862749715796
3.0715553275894036,-158.3862663437757
3.072,-30.983979364447272
3.0728345502819843,-65.10551671362211
3.0728345502819843,-65.10551671362211
3.073,129.32232759818862
3.0739553827547508,-99.74837506078575
3.0739553827547508,-99.74837506078575
3.074,-65.36693132846659
3.075,-53.13588327339042
3.076,68.99967642552835
3.077,4.278174209039436
3.078,-47.17969631729685
3.079,18.805734687781918
3.08,21.43454418024735
3.081,-26.410418422690462
3.082,3.6193676097896943
3.083,11.850024018489398
3.0835356344315366,-0.19349407034646293
3.0835356344315366,-0.1934940703464172
3.084,-13.302198822768338
3.084097037457138,-7.7360872907697225
3.084097037457138,-7.736078653581115
3.0842073125133975,5.562197094606596
3.0842073125133975,-403.6787247075214
3.085,-449.595524036477
3.085079717359121,-83.09666029324603
3.085079717359121,780.1197946496522
3.085321037840723,-193.29548482723484
3.085321037840723,-193.29549345676196
3.0855822840526077,-188.258285462608
3.0855822840526077,-188.2582768358334
3.0857578831452535,723.1782987883867
3.0857578831452535,723.1783070574727
3.08584873728679,356.58618359343296
3.08584873728679,356.58617531873256
3.085926521171256,-21.45532388925094
3.085926521171256,-21.45533251207515
3.086,-469.45156274204425
3.0862073858407,-68.51709249709896
3.0862073858407,-68.51708387829848
3.0863400969530614,545.541361203347
3.0863400969530614,545.5413695080546
3.086459192972077,397.09360986004907
3.086459192972077,397.09360154825606
3.0865722704887295,-123.80157625934524
3.0865722704887295,-123.80158487241084
3.0868151128764003,-160.57663065614128
3.0868151128764003,-160.57662204696757
3.0869301942305287,344.1051328953518
3.0869301942305287,344.10514123439066
3.087,511.43419955060426
3.0870650022467614,497.19923248220516
3.0870650022467614,497.19922413561835
3.0872555068454184,-422.0954731456513
3.0872555068454184,-422.09548174639366
3.0874357177205405,-225.5083320670204
3.0874357177205405,-225.5083234699925
3.087854012126907,-312.688762006113
3.087854012126907,-312.688770593812
3.088,-437.58135148465163
3.088079793613052,-143.6269752539785
3.088079793613052,-143.62696667182112
3.0884538153427616,-148.45871802596588
3.0884538153427616,-148.45872659858696
3.0886892977303724,-228.30905356711997
3.0886892977303724,-228.30904500093845
3.089,190.2225397861149
3.0891478597676283,-301.99023316398643
3.0891478597676283,-301.99024171670385
3.0892229301378538,-402.1788067205398
3.0892229301378538,-402.17879817012243
3.089507029459356,361.74250935951443
3.089507029459356,361.74251782651237
3.0895881883988316,289.11848534498534
3.0895881883988316,289.1184768745471
3.09,1.140165989166242
3.091,-129.44317393295245
3.0913233740726356,111.25681822435196
3.0913233740726356,111.25681822435196
3.092,186.3012123802631
3.0924442060616806,-155.43220076569295
3.0924442060616806,-155.43220076569295
3.093,-183.2969625732428
3.094,128.8626516495931
3.095,-70.7281121064452
3.095777464057961,76.16641616076032
3.095777464057961,76.16642479115302
3.0959655161408124,46.03077900876447
3.0959655161408124,46.03077037673806
3.096,13.971742657439247
3.096349802682508,22.973351266586356
3.096349802682508,22.973359901303745
3.096626460198406,9.839294011746059
3.096626460198406,9.83928537558493
3.096966445351954,9.203728593649673
3.096966445351954,9.203737231053145
3.097,33.985667908164146
3.097271772344521,-7.178916350514713
3.097271772344521,-7.178924988504081
3.0974582227702347,-65.22628496201352
3.0974582227702347,-65.22628496201352
3.097560677831702,-19.151640338475495
3.097560677831702,-19.1516317004483
3.098,-55.09064866318107
3.099,54.08569781943995
3.1,2.4859527943975417
3.1000005463906715,2.7779571755253536
3.1000005463906715,2.7779571755253536
3.101,-37.15420356759039
3.102,19.781586812827626
3.103,13.871091913662479
3.104,-21.85257349133679
3.105,0.6776099221358818
3.105259112505891,-6.237515253839416
3.105259112505891,15.61310402319487
3.106,62.10310933399267
3.1065730014022654,83.69687906185325
3.1065730014022654,5.6548613488596935
3.107,3.2252493411892194
3.108,-3.888019582467352
3.109,-19.112854278210754
3.1098121901469367,14.943942653518237
3.1098121901469367,14.943942653518237
3.11,-9.414082408626834
3.110933021687919,1.5319795123825095
3.110933021687919,1.5319795123825095
3.111,-3.7000469547479944
3.111380806803119,4.601063965719703
3.111380806803119,4.601063965719749
3.111764858925243,3.4753088451035787
3.111764858925243,3.4753174827482956
3.112,-1.005371620409758
3.113,3.249060194118223
3.114,1.276110847422103
3.115,1.9904732662290363
3.116,0.3900749830994742
3.117,-0.22966857030386917
3.118,0.28110266159005404
3.119,-0.3204344705348169
3.12,0.5204744458100696
3.121,0.258016654284834
3.122,0.12171958753473366
3.123,0.12204774144195635
3.124,-0.4952427992978522
3.1248261325076294,0.048095541396731334
3.1248261325076294,0.04810417882130036
3.125,-0.024758851341188826
3.125303386868877,0.1208652979164509
3.125303386868877,0.1208652979164509
3.126,-0.7747597207839821
3.1263109030660745,0.7603363016616544
3.1263109030660745,421.0789071260738
3.1263806288189615,361.64078107118723
3.1263806288189615,361.64077243621034
3.127,508.60655577030786
3.1270007698005244,510.0525600502417
3.1270007698005244,510.0525686804875
3.127065491535183,549.8459807247178
3.127065491535183,549.8459720950715
3.1271833071316353,145.3395575413855
3.1271833071316353,-758.7662472298275
3.12740846151115,67.65730888774189
3.12740846151115,67.65731751413546
3.1274848312529016,558.5743964118857
3.1274848312529016,558.5744046786155
3.1275793583608946,826.8546017951614
3.1275793583608946,826.8545935225718
3.1277324745655584,-285.6988605876045
3.1277324745655584,-285.6988692099651
3.127995576101288,-117.53070244592841
3.127995576101288,-117.53069382721216
3.128,-93.9613425618684
3.128123154561451,636.4179891610617
3.128123154561451,636.4179974665802
3.128134506657309,684.1377426039359
3.128134506657309,684.1377342977286
3.128300999105909,55.26875171100792
3.128300999105909,55.26875171100792
3.1283590456613104,-382.32774507725986
3.1283590456613104,-382.3277536902406
3.1285917730364736,-214.16662764149643
3.1285917730364736,-214.16661903263147
3.128950487628269,-231.35275670096536
3.128950487628269,-231.35276530304859
3.129,-406.32055382387
3.1292075450262846,-209.36266308991685
3.1292075450262846,-209.36265449288715
3.129421830231772,526.9902472911144
3.129421830231772,526.9902472911144
3.1295528803081547,-129.55909418196893
3.1295528803081547,-129.5591027712109
3.1297883636688946,-335.1717473524291
3.1297883636688946,-335.1717387685655
3.13,548.9500207684695
3.1302081648567164,-350.11610121917977
3.1302081648567164,-350.1161097920209
3.1303241414027303,-497.2115881289031
3.1303241414027303,-497.21157955915544
3.13053125194006,441.6807574921927
3.13053125194006,441.68076592580957
3.130666631924695,300.63804758137667
3.130666631924695,300.63803914132916
3.131,-142.9177515833453
3.1311642909650454,397.96711945939745
3.1311642909650454,397.96712792161503
3.1311915361739535,403.8420784336995
3.1311915361739535,403.8420699703191
3.132,-302.6459959533834
3.133,267.376547734546
3.134,55.10412336146692
3.135,-193.30490664059536
3.136,77.5801360015272
3.137,73.2915666315966
3.138,-113.19635238543515
3.138822492517577,67.43535018169891
3.138822492517577,67.43535881932935
3.139,41.41106084377566
3.139009705118563,34.35045839421709
3.139009705118563,34.35044975625552
3.1392259630926547,-77.25590638863825
3.1392259630926547,-77.25590638863817
3.1393681683997556,8.753385141051618
3.1393681683997556,8.753393779094074
3.139707431482851,-15.34702559023344
3.139707431482851,-15.347034227647141
3.1399698236751856,-16.522449625254467
3.1399698236751856,-16.522440988690743
3.14,1.5346492556081306
3.140380271646156,-35.28873815260173
3.140380271646156,-35.28874678703404
3.1405647179094576,-38.07577800086419
3.1405647179094576,-38.07576936766891
3.141,-25.283575718946707
3.142,37.90711615629833
3.143,-35.597692750885855
3.144,27.612167134538865
3.145,-14.093531853751859
3.146,1.4531933995108064
3.146789801458995,-17.038908981324344
3.146789801458995,-17.038908981324344
3.147,7.208107553897353
3.14736268499814,-12.431465025068091
3.14736268499814,288.6525456913527
3.147585996712345,-36.10581617166577
3.147585996712345,-36.10582462075463
3.147910632200561,-76.99568530960643
3.147910632200561,-76.99568530960643
3.147953027149872,21.87974203098164
3.147953027149872,21.87975046312493
3.148,117.09414677563655
3.1483256378818316,16.908241844385472
3.1483256378818316,16.908233430096427
3.148676572818788,-51.639768862179906
3.148676572818788,-680.5071119991414
3.1487030429235117,-556.5399378581334
3.1487030429235117,-556.5399294627166
3.1488411463298878,351.646960573967
3.1488411463298878,351.64696916200035
3.149,565.4731683095739
3.1490575944784815,248.5922916604399
3.1490575944784815,248.59228306749318
3.1494332541811674,144.2114242744516
3.1494332541811674,144.2114328751936
3.149697720720183,95.216003512051
3.149697720720183,95.21599490626853
3.15,-143.3733398884154
3.1500514024275104,118.66902289527454
3.1500514024275104,118.66903150754511
3.1503028711630074,146.39988700435978
3.1503028711630074,146.39987838799888
3.150702661926834,226.79477531366297
3.150702661926834,226.79478393572143
3.150916981347342,175.185910225839
3.150916981347342,175.18590160115315
3.151,-175.96177617709867
3.1513087071125483,134.92617287539449
3.1513087071125483,134.9261815044766
3.151575710534786,20.38734919247191
3.151575710534786,20.387340560842325
3.1518957405292003,5.129901332476983
3.1518957405292003,5.129909966303231
3.152,358.0792488528847
3.152206263481526,-32.99813793128277
3.152206263481526,-32.99814656691484
3.152517107540996,22.210224519925017
3.152517107540996,22.21023315692833
3.152806888027167,18.170451392339796
3.152806888027167,18.170442754488867
3.153,-295.03278868064126
3.1531422304122003,34.83841326729163
3.1531422304122003,34.83842190546635
3.1531485357874,52.759895135018056
3.1531485357874,52.759895135018056
3.153443229281395,-36.775512348953214
3.153443229281395,-36.77552098679079
3.1537226007364376,-64.82067085862005
3.1537226007364376,-64.82066222141977
3.154,120.35600181276658
3.154103430051332,-138.59488073402713
3.154103430051332,-138.5948893697368
3.1542956648283655,-133.51798268870976
3.1542956648283655,-133.51797405423534
3.154715143891348,-134.33224157105266
3.154715143891348,-134.3322502024701
3.1549024287081293,-122.98769273356879
3.1549024287081293,-122.98768410387854
3.155,85.06865396879363
3.155331323118972,-138.7106878144524
3.155331323118972,-138.71069643960553
3.155479122780699,-152.87952960856765
3.155479122780699,-152.87952098519648
3.156,-179.44500606195203
3.157,64.78285674692748
3.158,85.28330962845138
3.159,-88.23927740328341
3.16,-16.921910527535786
3.161,67.86086713592913
3.162,-20.76322326663422
3.163,-34.617379104073166
3.164,31.54391285803564
3.165,3.5359071327256117
3.1652785976939093,3.8652236876950243
3.1652785976939093,3.8652236876950243
3.166,-21.550874655704064
3.166399428079323,18.17548901171458
3.166399428079323,18.17548901171458
3.167,17.38630885429566
3.167071105053667,7.795832220358847
3.167071105053667,7.795832220358899
3.167442469519276,3.7384023140563776
3.167442469519276,3.738410951734742
3.168,-8.114972025247033
3.1684144590074514,-5.36243962647289
3.1684144590074514,-5.36243962647289
3.169,1.4168213628835054
3.1692868624178487,-4.575391379465206
3.1692868624178487,-4.575391379465206
3.17,3.563904617171182
3.171,-6.442139533847339
3.172,6.768280760731318
3.173,-5.340503037084251
3.174,2.9716734656898187
3.175,-0.6292613801042388
3.176,-1.103097301668811
3.177,1.9164120145604524
3.178,-2.0265254213129187
3.179,1.6033461601541206
3.18,-1.0122386651607405
3.1805267644774426,-1.1223908830561564
3.1805267644774426,-1.1223822456071666
3.180993671181041,0.34194356743138926
3.180993671181041,0.34194356743138926
3.181,0.2620694064191658
3.182,0.7138783895232189
3.183,-0.8315062968453419
3.1837673882617583,0.29836359906686494
3.1837673882617583,0.29836359906686494
3.184,0.20053592672188414
3.18488821831736,-0.16320428406404264
3.18488821831736,-0.16320428406404264
3.185,0.49794248725301404
3.186,-0.422019022537763
3.187,-0.12912178594296075
3.188,0.3431222088979812
3.189,-0.06755036832933024
3.189466225771859,-0.25179258054283793
3.189466225771859,-0.25179258054283793
3.19,-0.19762369399517615
3.1907801126889686,-0.017734646840339152
3.1907801126889686,-0.017734646840339152
3.191,0.12565799434491592
3.192,0.045294915832011395
3.193,-0.1398574939778236
3.194,0.0405322626260648
3.1949162342478274,-0.08866548647488315
3.1949162342478274,-0.08866548647488315
3.195,-0.030860964520337597
3.195402250528327,-0.19825281879910062
3.195402250528327,-0.19824418139687416
3.196,-0.10269136659528455
3.197,0.16145264804473675
3.198,-0.1578336684873078
3.199,0.13209362857379642
3.2,-0.07523322241660442
3.2000008725440177,-0.07455132588524628
3.2000008725440177,-0.07455132588524628
3.201,0.023819385425219317
3.202,0.018287059446580583
3.2022561735635735,0.01417744426212365
3.2022561735635735,0.01417744426212365
3.203,-0.04282429501349154
3.203377003313781,0.055406342172991146
3.203377003313781,0.055406342172991146
3.204,0.044464710760687365
3.205,-0.03955855012764803
3.206,0.018867255468794697
3.207,-0.012205952453801239
3.208,-0.007988255692685686
3.2083591033170626,0.005700105793263188
3.2083591033170626,0.0057087432080636935
3.208838794523027,-0.11281975195756999
3.208838794523027,-0.11281975195756999
3.209,-0.03837698860154082
3.21,-0.05344081098951092
3.2105179858799366,0.06680658713069876
3.2105179858799366,0.06680658713069876
3.211,0.142926161435442
3.211390388739977,-0.05819405308500625
3.211390388739977,-0.05819405308500625
3.212,-0.044298376575248044
3.213,-0.052032466579266134
3.214,0.07218836005356122
3.215,0.004491933376553653
3.216,-0.04564985501962244
3.217,0.013848751046159291
3.218,0.020254168830952823
3.219,-0.03181493441173633
3.22,-0.009069634908725421
3.2207449540190356,-0.030762274217222996
3.2207449540190356,-0.030762274217222996
3.221,0.0017261326191820858
3.2218657834860767,-0.03064132800721342
3.2218657834860767,-0.03064132800721342
3.222,-0.033706910402230617
3.222761352064821,-0.03458041816550683
3.222761352064821,-0.03458041816550683
3.223,-0.057060566595863116
3.223246157623218,-0.14231968943819512
3.223246157623218,-0.14231105203628047
3.224,-0.15176188823265024
3.225,0.09996109855666602
3.226,-0.029976525615895144
3.227,-0.01571321098271694
3.228,0.04906055920411308
3.229,-0.05434198834586353
3.23,0.04434372369536976
3.231,-0.02637442868690841
3.231569739901863,-0.033981965306684264
3.231569739901863,-0.033981965306684264
3.232,0.0039024384270781587
3.2328836260598055,-0.02426070418339943
3.2328836260598055,-0.02426070418339943
3.233,0.0057359583330779396
3.234,-0.01886990458279364
3.235,0.011832408220996515
3.236,-0.01883511027601059
3.236204217902536,0.002863594007094239
3.236204217902536,0.002872231423869276
3.2366839071232745,-0.10757545438214233
3.2366839071232745,-0.10757545438214233
3.237,0.19770181806373094
3.238,-0.1283743059079605
3.239,0.02822401113801576
3.2392337299683645,-0.06806653424788761
3.2392337299683645,-0.06806653424788761
3.24,0.09519764910580758
3.2403545591731677,-0.09500741281716585
3.2403545591731677,-0.09500741281716585
3.241,-0.058307262953665784
3.242,-0.024937742620525144
3.243,0.057488612316979965
3.244,-0.005861816637982395
3.245,-0.03955013588297315
3.246,0.01829961783410533
3.247,0.00433852433364218
3.248,-0.02924943278393405
3.249,-0.009782841188154756
3.25,-0.01586154360329539
3.2506064597393065,-0.03444968098010748
3.2506064597393065,-0.03444968098000378
3.251,-0.09719184319957141
3.2510912668177316,-0.14227764130129011
3.2510912668177316,-0.14226900389594604
3.252,0.05878175111171324
3.2526214883274727,0.04213176764448906
3.2526214883274727,0.04213176764448906
3.253,-0.08884512924005666
3.253493890724909,0.06123088098321955
3.253493890724909,0.06123088098321955
3.254,0.10301532942696662
3.255,-0.0772992865382584
3.256,0.04906744867971245
3.257,-0.012497919287746094
3.257722501741891,0.026458251794337233
3.257722501741891,0.026458251794337233
3.258,-0.01546967314499207
3.2588433307035176,-0.028216236701656572
3.2588433307035176,-0.028216236701656572
3.259,0.029633701054661427
3.26,-0.03527450945434721
3.261,0.024029698166282087
3.262,-0.019725590441212304
3.263,0.0010488819318957843
3.264,-0.003477832773539191
3.264049323520151,0.0027259360989771997
3.264049323520151,0.00273457351866202
3.2645290101459263,-0.10951905059820444
3.2645290101459263,-0.10951905059820444
3.265,0.11212511711848294
3.266,0.07794750979272458
3.267,-0.1038031536785492
3.268,0.039084501984608055
3.269,0.06999480396287935
3.27,-0.05671110287526368
3.271,-0.013364241769087612
3.272,0.04530261317866431
3.273,-0.014524132347980917
3.2736732316362556,0.017000904020757324
3.2736732316362556,0.017000904020757324
3.274,-0.028575903645813694
3.2749871171557707,0.013730792963354055
3.2749871171557707,0.013730792963354055
3.275,0.01190863460967262
3.276,-0.004990698241748026
3.2762112696445893,0.0023314275897386993
3.2762112696445893,0.0023314275897386993
3.277,-0.03252259049192496
3.2773320983809437,-0.0037788673673133655
3.2773320983809437,-0.0037788673673133655
3.278,-0.01612653438131495
3.2784515583685296,-0.034209449401715886
3.2784515583685296,-0.03420944940167292
3.2789363629114012,-0.1420998650692198
3.2789363629114012,-0.14209122766682725
3.279,-0.1929470853719812
3.28,0.15942994942395539
3.281,-0.0902905130194353
3.282,0.03339478080926117
3.283,0.022932873076951132
3.284,-0.05075779283203531
3.285,0.06021955777648563
3.286,-0.050792718239675114
3.287,0.030360078156070266
3.288,-0.01371109234691828
3.289,-0.006774733990479065
3.29,0.008987347020487535
3.291,-0.020611586184589803
3.291894419110408,0.0026628592626080083
3.291894419110408,0.0026714966789674888
3.292,0.14859772630735824
3.2923741046252277,-0.10957201709139763
3.2923741046252277,-0.10957201709139763
3.293,-0.12261372071133658
3.294,0.1328285299058667
3.2947000339587182,0.013346822318053397
3.2947000339587182,0.013346822318053397
3.2947249702350465,-0.019955900821831518
3.2947249702350465,-19.064995193326418
3.295,15.243526299330512
3.2955973722432184,8.279939030531636
3.2955973722432184,44.948158922309645
3.2958208624861007,-20.114067457632952
3.2958208624861007,-20.114067457632952
3.296,-29.863642000814185
3.297,-16.570482469698717
3.298,29.368315846490802
3.299,-2.6771422863226326
3.3,-18.296098264113468
3.30000105306937,-18.372527659166856
3.30000105306937,-18.372527659166856
3.301,9.729677731266237
3.302,7.659677153938737
3.303,-10.444774643001626
3.304,1.3441050681999327
3.305,5.574308050238372
3.306,-5.491089944571646
3.3062966489271184,5.127677752643624
3.3062966489271184,5.127677752643663
3.3067615126721406,0.5619664967191835
3.3067615126721406,0.5619751341718555
3.307,2.6863828445324884
3.308,-0.8568944298341917
3.309,-0.6136386978132328
3.31,1.5285107579481094
3.311,-1.800285614952933
3.312,1.541875100566703
3.313,-0.9736559972506857
3.313188794928384,1.107785956204773
3.313188794928384,1.107785956204773
3.314,0.31560427340596703
3.314309623262108,-0.3679870556765965
3.314309623262108,-0.3679870556765965
3.315,0.19994183149358852
3.3157767045277504,0.7498980767830887
3.3157767045277504,-360.0368887087491
3.3159046938458134,-209.62917420203468
3.3159046938458134,-209.62916561438536
3.316,77.32400861663963
3.3164805938244797,-366.5219141297258
3.3164805938244797,-366.5219227298833
3.3165264463107906,-374.85048566738953
3.3165264463107906,-374.8504770663085
3.317,110.10951532834264
3.317090589509789,-179.3180823344399
3.317090589509789,508.29923390944236
3.3171708368319224,32.12430023646265
3.3171708368319224,32.12429162337593
3.3175238143183465,152.6001948502696
3.3175238143183465,152.6002034687769
3.3177639855446035,153.2616206831139
3.3177639855446035,153.2616120613827
3.318,-458.830553459935
3.3181733300660277,244.81717118871705
3.3181733300660277,244.81717981563202
3.3183926040565157,146.62862524082425
3.3183926040565157,146.62861661159602
3.3187566936155575,72.38189731060913
3.3187566936155575,72.38190594307616
3.319,195.68894228198042
3.3190569691394347,-51.47201175189883
3.3190569691394347,-51.47202038637461
3.3193397894036805,-51.65029348186283
3.3193397894036805,-51.65028484590651
3.319665644479466,-48.17171756329972
3.319665644479466,-48.17172620075027
3.3199789138595026,35.34277033056619
3.3199789138595026,35.3427789685727
3.32,103.63462102497239
3.3202191914798025,159.27924296429595
3.3202191914798025,159.27924296429595
3.320259512917976,28.735718527711185
3.320259512917976,28.735709889531538
3.3206025072252445,21.758922597300216
3.3206025072252445,21.7589312350301
3.3209224931099333,-78.30749441124928
3.3209224931099333,-78.3075030479939
3.321,-226.2746043206073
3.321162683836779,-121.96799873215286
3.321162683836779,-121.96799009652557
3.3215835179074378,-178.9490650602396
3.3215835179074378,-178.94907369330073
3.321730472186485,-176.16405022924238
3.321730472186485,-176.1640415973297
3.322,211.9927042658737
3.3221684256357715,-139.5941578071059
3.3221684256357715,-139.59416643486975
3.3223529686698985,-128.3191779150535
3.3223529686698985,-128.31916928925878
3.3227949618467933,-163.61096085751427
3.3227949618467933,-163.6109694775707
3.3229100901158732,-174.51351146505573
3.3229100901158732,-174.51350284665875
3.323,-21.369508195885423
3.324,-146.70774995369982
3.325,95.46059514947149
3.326,48.04466223430953
3.327,-91.42104182199287
3.328,11.149227349841787
3.329,54.73964135355075
3.33,-32.75100695899347
3.331,-19.884350392987006
3.3316775528285216,-34.85231750986861
3.3316775528285216,-34.85231750986861
3.332,31.85968182121363
3.3327983809825215,-13.534587600219162
3.3327983809825215,-13.534587600219162
3.333,-12.036678964163626
3.334,-9.098400308174062
3.3341417322819176,-19.71904415116298
3.3341417322819176,-19.719044151162926
3.334353015823191,15.205865038116034
3.334353015823191,15.205873676043332
3.3346170003941347,-6.08548175708678
3.3346170003941347,-6.085490394519347
3.334773260304573,-15.536514742212312
3.334773260304573,-15.536506105249023
3.335,14.312264956799734
3.336,-13.435063364279205
3.3368284348521238,2.9465393740866577
3.3368284348521238,-384.3325452391933
3.337,-88.05200740159381
3.3371557581170057,431.8776552928338
3.3371557581170057,431.8776636098567
3.33729665777579,293.2253342236273
3.33729665777579,293.22532589844474
3.3377008365324015,-57.56141463297932
3.3377008365324015,768.9955833348648
3.337786083461112,939.9946008636861
3.337786083461112,939.9946092165391
3.3378359190902076,622.8613690378237
3.3378359190902076,622.8613606822204
3.337949635853533,-232.83416579364638
3.337949635853533,-232.83417439237513
3.338,-510.59694944700783
3.3381835348567703,-387.11093323370125
3.3381835348567703,-387.1109246396999
3.338351951567768,733.5201486620882
3.338351951567768,733.5201570453398
3.3384954938557767,240.34872752402725
3.3384954938557767,240.34871913318042
3.338562747796339,-76.2592860238515
3.338562747796339,-76.25929460892198
3.3388062546642048,-298.16720901204604
3.3388062546642048,-298.1672004328709
3.3389451330068285,497.1722614532755
3.3389451330068285,497.1722698668091
3.339,564.1704768043589
3.3391076639290778,336.8513910199364
3.3391076639290778,336.85138259877897
3.33924199402539,-365.08653677694605
3.33924199402539,-365.0865453445974
3.339416980374403,-334.3539950207738
3.339416980374403,-334.3539864581736
3.3395422843461895,265.3651565251377
3.3395422843461895,265.3651649671991
3.3397185397434415,457.70823007076933
3.3397185397434415,457.7082216209541
3.3399307670899727,-544.4836658046943
3.3399307670899727,-544.4836743519741
3.34,-477.40972748439657
3.340045740470409,-315.4592644987477
3.340045740470409,-315.45925595509465
3.340199610288308,351.9080858716104
3.340199610288308,351.9080943422687
3.3402824175795356,563.2912747298872
3.3402824175795356,563.2912662556098
3.3405099590704386,-382.0444599772313
3.3405099590704386,-382.04446850570434
