"time","virtualBench_layout_v1.acc_x"
0,-0
0,-0
0,-0
5.0340750498009234e-5,-0
5.0340750498009234e-5,-0
5.2095457739543747e-5,-0
5.2095457739543747e-5,-0
5.638849452944368e-5,-0
5.638849452944368e-5,-0
6.6618956174462e-5,-0
6.6618956174462e-5,-0
1.953125e-4,-0
1.953125e-4,-0
3.90625e-4,-0
3.90625e-4,-0
5.859375e-4,-0
5.859375e-4,-0
7.8125e-4,-0
7.8125e-4,-0
9.765625e-4,-0
9.765625e-4,-0
0.001,-0
0.001171875,-0
0.001171875,-0
0.0013671875,-0
0.0013671875,-0
0.0015625,-0
0.0015625,-0
0.0017578125,-0
0.0017578125,-0
0.001953125,-0
0.001953125,-0
0.002,-0
0.0021484375,-0
0.0021484375,-0
0.00234375,-0
0.00234375,-0
0.0025390625,-0
0.0025390625,-0
0.002734375,-0
0.002734375,-0
0.0029296875,-0
0.0029296875,-0
0.003,-0
0.003125,-0
0.003125,-0
0.0033203125,-0
0.0033203125,-0
0.003515625,-0
0.003515625,-0
0.0037109375,-0
0.0037109375,-0
0.00390625,-0
0.00390625,-0
0.004,-0
0.0041015625,-0
0.0041015625,-0
0.004296875,-0
0.004296875,-0
0.0044921875,-0
0.0044921875,-0
0.0046875,-0
0.0046875,-0
0.0048828125,-0
0.0048828125,-0
0.005,-0
0.005078125,-0
0.005078125,-0
0.0052734375,-0
0.0052734375,-0
0.00546875,-0
0.00546875,-0
0.0056640625,-0
0.0056640625,-0
0.005859375,-0
0.005859375,-0
0.006,-0
0.0060546875,-0
0.0060546875,-0
0.00625,-0
0.00625,-0
0.0064453125,-0
0.0064453125,-0
0.006640625,-0
0.006640625,-0
0.0068359375,-0
0.0068359375,-0
0.007,-0
0.00703125,-0
0.00703125,-0
0.0072265625,-0
0.0072265625,-0
0.007421875,-0
0.007421875,-0
0.0076171875,-0
0.0076171875,-0
0.0078125,-0
0.0078125,-0
0.008,-0
0.0080078125,-0
0.0080078125,-0
0.008203125,-0
0.008203125,-0
0.0083984375,-0
0.0083984375,-0
0.00859375,-0
0.00859375,-0
0.0087890625,-0
0.0087890625,-0
0.008984375,-0
0.008984375,-0
0.009,-0
0.0091796875,-0
0.0091796875,-0
0.009375,-0
0.009375,-0
0.0095703125,-0
0.0095703125,-0
0.009765625,-0
0.009765625,-0
0.0099609375,-0
0.0099609375,-0
0.01,-0
0.01015625,-0
0.01015625,-0
0.0103515625,-0
0.0103515625,-0
0.010546875,-0
0.010546875,-0
0.0107421875,-0
0.0107421875,-0
0.0109375,-0
0.0109375,-0
0.011,-0
0.0111328125,-0
0.0111328125,-0
0.011328125,-0
0.011328125,-0
0.0115234375,-0
0.0115234375,-0
0.01171875,-0
0.01171875,-0
0.0119140625,-0
0.0119140625,-0
0.012,-0
0.012109375,-0
0.012109375,-0
0.0123046875,-0
0.0123046875,-0
0.0125,-0
0.0125,-0
0.0126953125,-0
0.0126953125,-0
0.012890625,-0
0.012890625,-0
0.013,-0
0.0130859375,-0
0.0130859375,-0
0.01328125,-0
0.01328125,-0
0.0134765625,-0
0.0134765625,-0
0.013671875,-0
0.013671875,-0
0.0138671875,-0
0.0138671875,-0
0.014,-0
0.0140625,-0
0.0140625,-0
0.0142578125,-0
0.0142578125,-0
0.014453125,-0
0.014453125,-0
0.0146484375,-0
0.0146484375,-0
0.01484375,-0
0.01484375,-0
0.015,-0
0.0150390625,-0
0.0150390625,-0
0.015234375,-0
0.015234375,-0
0.0154296875,-0
0.0154296875,-0
0.015625,-0
0.015625,-0
0.0158203125,-0
0.0158203125,-0
0.016,-0
0.016015625,-0
0.016015625,-0
0.0162109375,-0
0.0162109375,-0
0.01640625,-0
0.01640625,-0
0.0166015625,-0
0.0166015625,-0
0.016796875,-0
0.016796875,-0
0.0169921875,-0
0.0169921875,-0
0.017,-0
0.0171875,-0
0.0171875,-0
0.0173828125,-0
0.0173828125,-0
0.017578125,-0
0.017578125,-0
0.0177734375,-0
0.0177734375,-0
0.01796875,-0
0.01796875,-0
0.018,-0
0.0181640625,-0
0.0181640625,-0
0.018359375,-0
0.018359375,-0
0.0185546875,-0
0.0185546875,-0
0.01875,-0
0.01875,-0
0.0189453125,-0
0.0189453125,-0
0.019,-0
0.019140625,-0
0.019140625,-0
0.0193359375,-0
0.0193359375,-0
0.01953125,-0
0.01953125,-0
0.0197265625,-0
0.0197265625,-0
0.019921875,-0
0.019921875,-0
0.02,-0
0.0201171875,-0
0.0201171875,-0
0.020224252966796474,-0
0.020224252966796474,-0
0.020230537525298575,-0
0.020230537525298575,-0
0.020232929153334155,-0
0.020232929153334155,-0
0.020234474262767393,-0
0.020234474262767393,-0
0.02023582832938306,-0
0.02023582832938306,-0
0.02023736288194153,-0
0.02023736288194153,-0
0.020239690814807823,-0
0.020239690814807823,-0
0.02024538493272893,-0
0.02024538493272893,-0
0.0203125,-0
0.0203125,-0
0.02042923109649608,-0
0.02042923109649608,-0
0.0205078125,0.005929523555320346
0.0205078125,0.005929523555320346
0.020703125,0.056417357146208214
0.020703125,0.056417357146208214
0.0208984375,0.040025171248345884
0.0208984375,0.040025171248345884
0.021,-0.003405390328948644
0.02109375,-0.04520326222478871
0.02109375,-0.04520326222478871
0.02121928491838655,-0.07478596195111467
0.02121928491838655,-0.07478596195111467
0.0212890625,-0.07091339106836302
0.0212890625,-0.07091339106836302
0.021484375,0.005256241227655636
0.021484375,0.005256241227655636
0.0216796875,0.07443483598942316
0.0216796875,0.07443483598942316
0.021875,0.018271484617464376
0.021875,0.018271484617464376
0.022,-0.054294524525097226
0.0220703125,-0.0857448178427174
0.0220703125,-0.0857448178427174
0.022265625,-0.08809870620935287
0.022265625,-0.08809870620935287
0.0224609375,0.014395162556395051
0.0224609375,0.014395162556395051
0.02265625,0.09959245538485442
0.02265625,0.09959245538485442
0.0228515625,0.051972750215923666
0.0228515625,0.051972750215923666
0.023,-0.037136359090610305
0.023046875,-0.05991997612895451
0.023046875,-0.05991997612895451
0.0232421875,-0.06795466302157535
0.0232421875,-0.06795466302157535
0.0234375,0.04971311723703256
0.0234375,0.04971311723703256
0.0236328125,0.11865688584062534
0.0236328125,0.11865688584062534
0.023828125,0.016320758670426427
0.023828125,0.016320758670426427
0.024,-0.09929846492619761
0.0240234375,-0.1075198480797212
0.0240234375,-0.1075198480797212
0.02421875,-0.07436200386699998
0.02421875,-0.07436200386699998
0.0244140625,0.050349019149084684
0.0244140625,0.050349019149084684
0.024609375,0.06792321102677071
0.024609375,0.06792321102677071
0.0248046875,-0.041604758470625475
0.0248046875,-0.041604758470625475
0.025,-0.09976031181414632
0.025,-0.09976031181414632
0.0251953125,-0.01733186760316938
0.0251953125,-0.01733186760316938
0.025390625,0.0860666442618171
0.025390625,0.0860666442618171
0.0255859375,0.06385871730894492
0.0255859375,0.06385871730894492
0.02578125,-0.028807241270743588
0.02578125,-0.028807241270743588
0.0259765625,-0.039760512895821165
0.0259765625,-0.039760512895821165
0.026,-0.03325389854756761
0.026171875,0.033519258041293055
0.026171875,0.033519258041293055
0.0263671875,0.05582877437617946
0.0263671875,0.05582877437617946
0.0265625,-0.010048175038812425
0.0265625,-0.010048175038812425
0.0267578125,-0.05494029934462538
0.0267578125,-0.05494029934462538
0.026953125,-0.023501499533501863
0.026953125,-0.023501499533501863
0.027,-0.011579801831887504
0.0271484375,0.01162977191605609
0.0271484375,0.01162977191605609
0.02734375,-0.006694124005380185
0.02734375,-0.006694124005380185
0.0275390625,-0.028445747520011264
0.0275390625,-0.028445747520011264
0.027734375,-0.004179073984002697
0.027734375,-0.004179073984002697
0.0279296875,0.02713463989491894
0.0279296875,0.02713463989491894
0.028,0.028256099628928187
0.028125,0.016870081322592836
0.028125,0.016870081322592836
0.0283203125,-0.0014390824571746813
0.0283203125,-0.0014390824571746813
0.028515625,0.015604229653889745
0.028515625,0.015604229653889745
0.0287109375,0.031332223871142
0.0287109375,0.031332223871142
0.02890625,5.795942128009185e-4
0.02890625,5.795942128009185e-4
0.029,-0.02027504822952257
0.0291015625,-0.03336489081202381
0.0291015625,-0.03336489081202381
0.029296875,-0.01580367085481412
0.029296875,-0.01580367085481412
0.0294921875,0.014546882917011686
0.0294921875,0.014546882917011686
0.0296875,-0.004406981132495491
0.0296875,-0.004406981132495491
0.0298828125,-0.04011972523952948
0.0298828125,-0.04011972523952948
0.03,-0.037128676279283436
0.030078125,-0.022182396064399604
0.030078125,-0.022182396064399604
0.0302734375,0.028621990685897478
0.0302734375,0.028621990685897478
0.03046875,0.03327804391255849
0.03046875,0.03327804391255849
0.0306640625,-0.006608368313023867
0.0306640625,-0.006608368313023867
0.030859375,-0.013867261056387789
0.030859375,-0.013867261056387789
0.031,0.012263904915105796
0.0310546875,0.023373037256077776
0.0310546875,0.023373037256077776
0.03125,0.033121108027050004
0.03125,0.033121108027050004
0.0314453125,-0.007230773564979365
0.0314453125,-0.007230773564979365
0.031640625,-0.03245938746051348
0.031640625,-0.03245938746051348
0.0318359375,-0.010037838582303123
0.0318359375,-0.010037838582303123
0.032,0.009008118235253972
0.03203125,0.00954598557547938
0.03203125,0.00954598557547938
0.0322265625,-0.00812036015947152
0.0322265625,-0.00812036015947152
0.032421875,-0.024034466738548706
0.032421875,-0.024034466738548706
0.0326171875,-0.0055126311472071254
0.0326171875,-0.0055126311472071254
0.0328125,0.017120889522208416
0.0328125,0.017120889522208416
0.033,0.013032159893293482
0.0330078125,0.012465692697196232
0.0330078125,0.012465692697196232
0.033203125,0.0015571433988718977
0.033203125,0.0015571433988718977
0.0333984375,0.00792175532849547
0.0333984375,0.00792175532849547
0.03359375,0.013444902577861087
0.03359375,0.013444902577861087
0.0337890625,0.0016131473887289194
0.0337890625,0.0016131473887289194
0.033984375,-0.008416984940263661
0.033984375,-0.008416984940263661
0.034,-0.008493136593875558
0.0341796875,-0.003883938498426151
0.0341796875,-0.003883938498426151
0.034375,-0.003274245574892573
0.034375,-0.003274245574892573
0.0345703125,-0.013941394041715911
0.0345703125,-0.013941394041715911
0.034765625,-0.014028490486266587
0.034765625,-0.014028490486266587
0.0349609375,0.0021818244817516375
0.0349609375,0.0021818244817516375
0.035,0.005194972268285136
0.03515625,0.00930377929275944
0.03515625,0.00930377929275944
0.0353515625,-5.716920104292811e-4
0.0353515625,-5.716920104292811e-4
0.035546875,-0.0019603336035172447
0.035546875,-0.0019603336035172447
0.0357421875,0.012967126536222964
0.0357421875,0.012967126536222964
0.0359375,0.016909062571120556
0.0359375,0.016909062571120556
0.036,0.012854481474287749
0.0361328125,-1.6863164127374486e-4
0.0361328125,-1.6863164127374486e-4
0.036328125,-0.010670723827300874
0.036328125,-0.010670723827300874
0.0365234375,-0.0013226129635391243
0.0365234375,-0.0013226129635391243
0.03671875,0.0038786272954034473
0.03671875,0.0038786272954034473
0.0369140625,-0.008213114240069236
0.0369140625,-0.008213114240069236
0.037,-0.013646907417106252
0.037109375,-0.015491960538866076
0.037109375,-0.015491960538866076
0.0373046875,-0.00407163705055158
0.0373046875,-0.00407163705055158
0.0375,0.006932002151848207
0.0375,0.006932002151848207
0.0376953125,0.0030510726136974836
0.0376953125,0.0030510726136974836
0.037890625,-0.0013242735612051248
0.037890625,-0.0013242735612051248
0.038,0.0014452821178378705
0.0380859375,0.005288653076329364
0.0380859375,0.005288653076329364
0.03828125,0.01034155893842173
0.03828125,0.01034155893842173
0.0384765625,0.004319184202238438
0.0384765625,0.004319184202238438
0.038671875,-0.0020813161018653353
0.038671875,-0.0020813161018653353
0.0388671875,-0.0013506772841433146
0.0388671875,-0.0013506772841433146
0.039,-8.650595009682543e-4
0.0390625,-0.0015870460742358206
0.0390625,-0.0015870460742358206
0.0392578125,-0.006185415238788641
0.0392578125,-0.006185415238788641
0.039453125,-0.006754052507779051
0.039453125,-0.006754052507779051
0.0396484375,-0.0020367357316820878
0.0396484375,-0.0020367357316820878
0.03984375,-4.784716997768279e-4
0.03984375,-4.784716997768279e-4
0.04,-0.0017718886572986592
0.0400390625,-0.0018392944181037374
0.0400390625,-0.0018392944181037374
0.040234375,0.0017525895368607214
0.040234375,0.0017525895368607214
0.0404296875,0.007412783895323294
0.0404296875,0.007412783895323294
0.040625,0.005737442002371307
0.040625,0.005737442002371307
0.0408203125,7.472350848328202e-5
0.0408203125,7.472350848328202e-5
0.041,1.1405565180261368e-4
0.041015625,3.832609002987486e-4
0.041015625,3.832609002987486e-4
0.0412109375,0.003348671564727082
0.0412109375,0.003348671564727082
0.04140625,-5.058657534742217e-4
0.04140625,-5.058657534742217e-4
0.0416015625,-0.006948466319352226
0.0416015625,-0.006948466319352226
0.041796875,-0.0057156283572537825
0.041796875,-0.0057156283572537825
0.0419921875,-1.8821808137030327e-4
0.0419921875,-1.8821808137030327e-4
0.042,-4.45664653200839e-5
0.0421875,-1.160530604026877e-4
0.0421875,-1.160530604026877e-4
0.0423828125,-0.002898604232506763
0.0423828125,-0.002898604232506763
0.042578125,-1.886237796152046e-4
0.042578125,-1.886237796152046e-4
0.0427734375,0.0050680181518226175
0.0427734375,0.0050680181518226175
0.04296875,0.0048294651973253555
0.04296875,0.0048294651973253555
0.043,0.00426885339686188
0.0431640625,0.001204929269820812
0.0431640625,0.001204929269820812
0.043359375,8.001008838400131e-4
0.043359375,8.001008838400131e-4
0.0435546875,0.0018653287838672483
0.0435546875,0.0018653287838672483
0.04375,-3.161201685771692e-4
0.04375,-3.161201685771692e-4
0.0439453125,-0.003292721885492844
0.0439453125,-0.003292721885492844
0.044,-0.0035723867566128803
0.044140625,-0.0030652665389888645
0.044140625,-0.0030652665389888645
0.0443359375,-0.001791382606465386
0.0443359375,-0.001791382606465386
0.04453125,-0.002005165974899359
0.04453125,-0.002005165974899359
0.0447265625,-0.001350325530695487
0.0447265625,-0.001350325530695487
0.044921875,0.001227136818205174
0.044921875,0.001227136818205174
0.045,0.0020533853938037028
0.0451171875,0.0024332771852835083
0.0451171875,0.0024332771852835083
0.0453125,0.0015190294674901905
0.0453125,0.0015190294674901905
0.0455078125,0.00170567334624816
0.0455078125,0.00170567334624816
0.045703125,0.0028451254093819767
0.045703125,0.0028451254093819767
0.0458984375,0.0014562023884715086
0.0458984375,0.0014562023884715086
0.046,-1.9479406953126777e-4
0.04609375,-0.0015363351792580249
0.04609375,-0.0015363351792580249
0.0462890625,-0.0020008133736873074
0.0462890625,-0.0020008133736873074
0.046484375,-6.627556800710699e-4
0.046484375,-6.627556800710699e-4
0.0466796875,-0.0012900970961962493
0.0466796875,-0.0012900970961962493
0.046875,-0.002770813245643905
0.046875,-0.002770813245643905
0.047,-0.0022960507954079834
0.0470703125,-0.0014470662878695861
0.0470703125,-0.0014470662878695861
0.047265625,0.0012888707455797344
0.047265625,0.0012888707455797344
0.0474609375,0.001662470895287968
0.0474609375,0.001662470895287968
0.04765625,6.469778614978522e-4
0.04765625,6.469778614978522e-4
0.0478515625,0.0012556880111541102
0.0478515625,0.0012556880111541102
0.048,0.0021968535669441014
0.048046875,0.0023042176755102284
0.048046875,0.0023042176755102284
0.0482421875,0.0012395102703354338
0.0482421875,0.0012395102703354338
0.0484375,-6.071652612069239e-4
0.0484375,-6.071652612069239e-4
0.0486328125,-9.417721565042336e-4
0.0486328125,-9.417721565042336e-4
0.048828125,-7.307568438893602e-4
0.048828125,-7.307568438893602e-4
0.049,-0.0012588710564208488
0.0490234375,-0.001353406354296982
0.0490234375,-0.001353406354296982
0.04921875,-0.0016179185757900089
0.04921875,-0.0016179185757900089
0.0494140625,-6.682153980217265e-4
0.0494140625,-6.682153980217265e-4
0.049609375,1.7424636649099323e-4
0.049609375,1.7424636649099323e-4
0.0498046875,3.5198264133715074e-4
0.0498046875,3.5198264133715074e-4
0.05,9.069975718250384e-4
0.05,9.069975718250384e-4
0.0501953125,0.001630304349057518
0.0501953125,0.001630304349057518
0.050390625,0.0012623635301279024
0.050390625,0.0012623635301279024
0.0505859375,3.439899506391675e-4
0.0505859375,3.439899506391675e-4
0.05078125,2.0235677694648013e-4
0.05078125,2.0235677694648013e-4
0.0509765625,1.7282092178504127e-4
0.0509765625,1.7282092178504127e-4
0.051,1.0595159508715313e-4
0.051171875,-7.820942504801615e-4
0.051171875,-7.820942504801615e-4
0.0513671875,-0.001525315272006611
0.0513671875,-0.001525315272006611
0.0515625,-9.079633137205612e-4
0.0515625,-9.079633137205612e-4
0.0517578125,-1.2448480442583953e-4
0.0517578125,-1.2448480442583953e-4
0.051953125,-2.5692162464364954e-4
0.051953125,-2.5692162464364954e-4
0.052,-3.233567765402734e-4
0.0521484375,-2.0425001572831059e-4
0.0521484375,-2.0425001572831059e-4
0.05234375,7.585994360168047e-4
0.05234375,7.585994360168047e-4
0.0525390625,0.0013301539085580627
0.0525390625,0.0013301539085580627
0.052734375,7.956469695101775e-4
0.052734375,7.956469695101775e-4
0.0529296875,3.0470418749785344e-4
0.0529296875,3.0470418749785344e-4
0.053,3.049852774172218e-4
0.053125,3.9601730049847184e-4
0.053125,3.9601730049847184e-4
0.0533203125,1.5332959437606986e-4
0.0533203125,1.5332959437606986e-4
0.053515625,-5.800584778084122e-4
0.053515625,-5.800584778084122e-4
0.0537109375,-8.56093365281696e-4
0.0537109375,-8.56093365281696e-4
0.05390625,-5.761451031803672e-4
0.05390625,-5.761451031803672e-4
0.054,-4.702295341677126e-4
0.0541015625,-4.3641764330352995e-4
0.0541015625,-4.3641764330352995e-4
0.054296875,-3.5126103963722954e-4
0.054296875,-3.5126103963722954e-4
0.0544921875,1.0452880666136921e-4
0.0544921875,1.0452880666136921e-4
0.0546875,5.369548747402031e-4
0.0546875,5.369548747402031e-4
0.0548828125,5.481435136187457e-4
0.0548828125,5.481435136187457e-4
0.055,5.121772821127663e-4
0.055078125,5.341865353650638e-4
0.055078125,5.341865353650638e-4
0.0552734375,6.42310159261375e-4
0.0552734375,6.42310159261375e-4
0.05546875,3.802263356161295e-4
0.05546875,3.802263356161295e-4
0.0556640625,-1.7276368934888986e-4
0.0556640625,-1.7276368934888986e-4
0.055859375,-3.5884916482321894e-4
0.055859375,-3.5884916482321894e-4
0.056,-2.7883941950687663e-4
0.0560546875,-2.6364267025488775e-4
0.0560546875,-2.6364267025488775e-4
0.05625,-4.3781664330300174e-4
0.05625,-4.3781664330300174e-4
0.0564453125,-6.143825589328827e-4
0.0564453125,-6.143825589328827e-4
0.056640625,-2.64627837601214e-4
0.056640625,-2.64627837601214e-4
0.0568359375,2.132278578975133e-4
0.0568359375,2.132278578975133e-4
0.057,2.7890976298688974e-4
0.05703125,2.634042852279611e-4
0.05703125,2.634042852279611e-4
0.0572265625,2.2277044051965955e-4
0.0572265625,2.2277044051965955e-4
0.057421875,4.5595616742222234e-4
0.057421875,4.5595616742222234e-4
0.0576171875,5.43506770296312e-4
0.0576171875,5.43506770296312e-4
0.0578125,2.1510607193128695e-4
0.0578125,2.1510607193128695e-4
0.058,-7.877020231070175e-5
0.0580078125,-8.48089196467533e-5
0.0580078125,-8.48089196467533e-5
0.058203125,-1.2652128640043558e-4
0.058203125,-1.2652128640043558e-4
0.0583984375,-2.232365053988633e-4
0.0583984375,-2.232365053988633e-4
0.05859375,-4.053497270017359e-4
0.05859375,-4.053497270017359e-4
0.0587890625,-3.6253948141079517e-4
0.0587890625,-3.6253948141079517e-4
0.058984375,-1.500923992698855e-4
0.058984375,-1.500923992698855e-4
0.059,-1.3547882953590662e-4
0.0591796875,-2.7679845771344525e-5
0.0591796875,-2.7679845771344525e-5
0.059375,8.403562317949032e-5
0.059375,8.403562317949032e-5
0.0595703125,2.8068883956322566e-4
0.0595703125,2.8068883956322566e-4
0.059765625,3.477373483590229e-4
0.059765625,3.477373483590229e-4
0.0599609375,2.2697328029114283e-4
0.0599609375,2.2697328029114283e-4
0.06,2.0205141639262347e-4
0.06015625,1.5133232485628478e-4
0.06015625,1.5133232485628478e-4
0.0603515625,1.1325222390085044e-4
0.0603515625,1.1325222390085044e-4
0.060546875,-8.221811607192486e-5
0.060546875,-8.221811607192486e-5
0.0607421875,-2.894264346423314e-4
0.0607421875,-2.894264346423314e-4
0.0609375,-2.6419025849080957e-4
0.0609375,-2.6419025849080957e-4
0.061,-2.2448379245373906e-4
0.0611328125,-1.6341266972375035e-4
0.0611328125,-1.6341266972375035e-4
0.061328125,-1.813657242965283e-4
0.061328125,-1.813657242965283e-4
0.0615234375,-1.3653480440536936e-4
0.0615234375,-1.3653480440536936e-4
0.06171875,8.055053911781851e-5
0.06171875,8.055053911781851e-5
0.0619140625,2.191483278752293e-4
0.0619140625,2.191483278752293e-4
0.062,2.1109628165796868e-4
0.062109375,1.696451906099128e-4
0.062109375,1.696451906099128e-4
0.0623046875,1.3770217282876862e-4
0.0623046875,1.3770217282876862e-4
0.0625,1.6174017526132678e-4
0.0625,1.6174017526132678e-4
0.0626953125,6.901929413041796e-5
0.0626953125,6.901929413041796e-5
0.062890625,-9.923499775338351e-5
0.062890625,-9.923499775338351e-5
0.063,-1.5257760962633649e-4
0.0630859375,-1.6571190020178705e-4
0.0630859375,-1.6571190020178705e-4
0.06328125,-1.6498112605270454e-4
0.06328125,-1.6498112605270454e-4
0.0634765625,-1.899692952211096e-4
0.0634765625,-1.899692952211096e-4
0.063671875,-1.65125965426699e-4
0.063671875,-1.65125965426699e-4
0.0638671875,-5.689564908176181e-5
0.0638671875,-5.689564908176181e-5
0.064,6.319566620810457e-6
0.0640625,2.4561771818615297e-5
0.0640625,2.4561771818615297e-5
0.0642578125,6.168040897583382e-5
0.0642578125,6.168040897583382e-5
0.064453125,1.220635455539687e-4
0.064453125,1.220635455539687e-4
0.0646484375,1.4765321925430674e-4
0.0646484375,1.4765321925430674e-4
0.06484375,7.273113891512195e-5
0.06484375,7.273113891512195e-5
0.065,3.866396243751291e-6
0.0650390625,-6.708064845095674e-6
0.0650390625,-6.708064845095674e-6
0.065234375,-3.086096415952366e-5
0.065234375,-3.086096415952366e-5
0.0654296875,-8.673695866567854e-5
0.0654296875,-8.673695866567854e-5
0.065625,-1.725062799682875e-4
0.065625,-1.725062799682875e-4
0.0658203125,-1.6850490465081247e-4
0.0658203125,-1.6850490465081247e-4
0.066,-9.797499193275883e-5
0.066015625,-9.247922835040057e-5
0.066015625,-9.247922835040057e-5
0.0662109375,-5.917367847521615e-5
0.0662109375,-5.917367847521615e-5
0.06640625,-4.140355166432075e-5
0.06640625,-4.140355166432075e-5
0.0666015625,3.326271151155025e-5
0.0666015625,3.326271151155025e-5
0.066796875,9.352284948507816e-5
0.066796875,9.352284948507816e-5
0.0669921875,6.98289141400632e-5
0.0669921875,6.98289141400632e-5
0.067,6.786089173146936e-5
0.0671875,2.9013101590313894e-5
0.0671875,2.9013101590313894e-5
0.0673828125,1.306297812661561e-5
0.0673828125,1.306297812661561e-5
0.067578125,-3.0199947305575847e-5
0.067578125,-3.0199947305575847e-5
0.0677734375,-9.53111061541001e-5
0.0677734375,-9.53111061541001e-5
0.06796875,-1.1870809301930962e-4
0.06796875,-1.1870809301930962e-4
0.068,-1.1805291746849744e-4
0.0681640625,-1.0971205727147715e-4
0.0681640625,-1.0971205727147715e-4
0.068359375,-1.0341386411544251e-4
0.068359375,-1.0341386411544251e-4
0.0685546875,-7.459101504211918e-5
0.0685546875,-7.459101504211918e-5
0.06875,-1.933296107731186e-5
0.06875,-1.933296107731186e-5
0.0689453125,1.3080214076977015e-5
0.0689453125,1.3080214076977015e-5
0.069,1.6034662321168236e-5
0.069140625,2.1522305932414332e-5
0.069140625,2.1522305932414332e-5
0.0693359375,3.8382122089619664e-5
0.0693359375,3.8382122089619664e-5
0.06953125,3.6673408223830695e-5
0.06953125,3.6673408223830695e-5
0.0697265625,-8.911560613500402e-6
0.0697265625,-8.911560613500402e-6
0.069921875,-5.025398762459332e-5
0.069921875,-5.025398762459332e-5
0.07,-5.654990422240824e-5
0.0701171875,-6.071268991733603e-5
0.0701171875,-6.071268991733603e-5
0.0703125,-7.93238858098344e-5
0.0703125,-7.93238858098344e-5
0.0705078125,-1.04831112183984e-4
0.0705078125,-1.04831112183984e-4
0.070703125,-9.044800722485258e-5
0.070703125,-9.044800722485258e-5
0.0708984375,-4.987186186808379e-5
0.0708984375,-4.987186186808379e-5
0.071,-3.601299870231722e-5
0.07109375,-2.9428401396053294e-5
0.07109375,-2.9428401396053294e-5
0.0712890625,-1.6514654091442926e-5
0.0712890625,-1.6514654091442926e-5
0.071484375,1.1077400050102382e-5
0.071484375,1.1077400050102382e-5
0.0716796875,2.3939767416686353e-5
0.0716796875,2.3939767416686353e-5
0.071875,5.583781854445746e-6
0.071875,5.583781854445746e-6
0.072,-9.051395394865658e-6
0.0720703125,-1.5238240233028666e-5
0.0720703125,-1.5238240233028666e-5
0.072265625,-2.997047402386599e-5
0.072265625,-2.997047402386599e-5
0.0724609375,-5.373265893368617e-5
0.0724609375,-5.373265893368617e-5
0.07265625,-7.369700652759548e-5
0.07265625,-7.369700652759548e-5
0.0728515625,-7.286766482608731e-5
0.0728515625,-7.286766482608731e-5
0.073,-6.658219743951865e-5
0.073046875,-6.489702125897501e-5
0.073046875,-6.489702125897501e-5
0.0732421875,-5.5896626955265205e-5
0.0732421875,-5.5896626955265205e-5
0.0734375,-3.3408786440591864e-5
0.0734375,-3.3408786440591864e-5
0.0736328125,-8.646798386358068e-6
0.0736328125,-8.646798386358068e-6
0.073828125,-1.6292995739242144e-6
0.073828125,-1.6292995739242144e-6
0.074,-1.6680636482635514e-6
0.0740234375,-1.3454321547978765e-6
0.0740234375,-1.3454321547978765e-6
0.07421875,2.207708862500546e-6
0.07421875,2.207708862500546e-6
0.0744140625,-8.057999315302933e-6
0.0744140625,-8.057999315302933e-6
0.074609375,-3.2535485514684215e-5
0.074609375,-3.2535485514684215e-5
0.0748046875,-4.662345210657004e-5
0.0748046875,-4.662345210657004e-5
0.075,-4.887742375175863e-5
0.075,-4.887742375175863e-5
0.0751953125,-5.539164909487693e-5
0.0751953125,-5.539164909487693e-5
0.075390625,-5.7453321028716475e-5
0.075390625,-5.7453321028716475e-5
0.0755859375,-4.229403558464462e-5
0.0755859375,-4.229403558464462e-5
0.07578125,-2.4492988566965357e-5
0.07578125,-2.4492988566965357e-5
0.0759765625,-1.6036449246165096e-5
0.0759765625,-1.6036449246165096e-5
0.076,-1.5251900597146317e-5
0.076171875,-7.812169354720622e-6
0.076171875,-7.812169354720622e-6
0.0763671875,3.507334537244944e-7
0.0763671875,3.507334537244944e-7
0.0765625,-2.7881220261427586e-6
0.0765625,-2.7881220261427586e-6
0.0767578125,-1.3301469661081144e-5
0.0767578125,-1.3301469661081144e-5
0.076953125,-2.1712029812853695e-5
0.076953125,-2.1712029812853695e-5
0.077,-2.3646784229697237e-5
0.0771484375,-3.106075681638676e-5
0.0771484375,-3.106075681638676e-5
0.07734375,-4.091064405478684e-5
0.07734375,-4.091064405478684e-5
0.0775390625,-4.230697074739109e-5
0.0775390625,-4.230697074739109e-5
0.077734375,-3.707909386560515e-5
0.077734375,-3.707909386560515e-5
0.0779296875,-3.232878312242615e-5
0.0779296875,-3.232878312242615e-5
0.078,-3.011218808851579e-5
0.078125,-2.398637229092393e-5
0.078125,-2.398637229092393e-5
0.0783203125,-1.101594660890548e-5
0.0783203125,-1.101594660890548e-5
0.078515625,-3.7612175443069162e-6
0.078515625,-3.7612175443069162e-6
0.0787109375,-4.165011271178853e-6
0.0787109375,-4.165011271178853e-6
0.07890625,-4.219619360590343e-6
0.07890625,-4.219619360590343e-6
0.079,-4.304475087812953e-6
0.0791015625,-5.993822105615498e-6
0.0791015625,-5.993822105615498e-6
0.079296875,-1.5039443230169258e-5
0.079296875,-1.5039443230169258e-5
0.0794921875,-2.4121221748024668e-5
0.0794921875,-2.4121221748024668e-5
0.0796875,-2.650315734800679e-5
0.0796875,-2.650315734800679e-5
0.0798828125,-2.710376087153299e-5
0.0798828125,-2.710376087153299e-5
0.08,-2.7779689018181397e-5
0.080078125,-2.7597019974678894e-5
0.080078125,-2.7597019974678894e-5
0.0802734375,-2.2509723579838825e-5
0.0802734375,-2.2509723579838825e-5
0.08046875,-1.3734870325549098e-5
0.08046875,-1.3734870325549098e-5
0.0806640625,-7.716260413848097e-6
0.0806640625,-7.716260413848097e-6
0.080859375,-3.5842747705128186e-6
0.080859375,-3.5842747705128186e-6
0.081,-6.609677453417451e-7
0.0810546875,1.5432686106819915e-7
0.0810546875,1.5432686106819915e-7
0.08125,-1.9790982899725584e-7
0.08125,-1.9790982899725584e-7
0.0814453125,-4.440121340654191e-6
0.0814453125,-4.440121340654191e-6
0.081640625,-8.313688919930895e-6
0.081640625,-8.313688919930895e-6
0.0818359375,-1.2217083890903035e-5
0.0818359375,-1.2217083890903035e-5
0.082,-1.619113754336432e-5
0.08203125,-1.6821711683601137e-5
0.08203125,-1.6821711683601137e-5
0.0822265625,-1.8026507508206446e-5
0.0822265625,-1.8026507508206446e-5
0.082421875,-1.5155340300748721e-5
0.082421875,-1.5155340300748721e-5
0.0826171875,-1.2204211826682965e-5
0.0826171875,-1.2204211826682965e-5
0.0828125,-8.728043853489797e-6
0.0828125,-8.728043853489797e-6
0.083,-2.9941780059772327e-6
0.0830078125,-2.740510732263113e-6
0.0830078125,-2.740510732263113e-6
0.083203125,1.948638417709203e-6
0.083203125,1.948638417709203e-6
0.0833984375,2.475622708775216e-6
0.0833984375,2.475622708775216e-6
0.08359375,1.982665448790888e-6
0.08359375,1.982665448790888e-6
0.0837890625,1.444844986014937e-6
0.0837890625,1.444844986014937e-6
0.083984375,-1.773788166375967e-6
0.083984375,-1.773788166375967e-6
0.084,-2.137440337057761e-6
0.0841796875,-6.032792102400597e-6
0.0841796875,-6.032792102400597e-6
0.084375,-7.718156103536655e-6
0.084375,-7.718156103536655e-6
0.0845703125,-7.770272341084405e-6
0.0845703125,-7.770272341084405e-6
0.084765625,-7.54429140326085e-6
0.084765625,-7.54429140326085e-6
0.0849609375,-5.307649381031121e-6
0.0849609375,-5.307649381031121e-6
0.085,-4.5643194291067335e-6
0.08515625,-1.303703658916966e-6
0.08515625,-1.303703658916966e-6
0.0853515625,1.885980450089253e-6
0.0853515625,1.885980450089253e-6
0.085546875,4.167834020102346e-6
0.085546875,4.167834020102346e-6
0.0857421875,6.088813874649546e-6
0.0857421875,6.088813874649546e-6
0.0859375,6.131723873425976e-6
0.0859375,6.131723873425976e-6
0.086,5.649735390855781e-6
0.0861328125,4.2867333678864306e-6
0.0861328125,4.2867333678864306e-6
0.086328125,2.563920598219749e-6
0.086328125,2.563920598219749e-6
0.0865234375,9.043656004625866e-7
0.0865234375,9.043656004625866e-7
0.08671875,-1.2348404211937059e-6
0.08671875,-1.2348404211937059e-6
0.0869140625,-1.994196576593499e-6
0.0869140625,-1.994196576593499e-6
0.087,-1.5817004073437335e-6
0.087109375,-6.861608570218891e-7
0.087109375,-6.861608570218891e-7
0.0873046875,8.782882158775429e-7
0.0873046875,8.782882158775429e-7
0.0875,2.574559444329383e-6
0.0875,2.574559444329383e-6
0.0876953125,5.1908693922964044e-6
0.0876953125,5.1908693922964044e-6
0.087890625,7.323655096674875e-6
0.087890625,7.323655096674875e-6
0.088,7.791728375727835e-6
0.0880859375,7.89649246246693e-6
0.0880859375,7.89649246246693e-6
0.08828125,7.928051350997167e-6
0.08828125,7.928051350997167e-6
0.0884765625,7.428530812342293e-6
0.0884765625,7.428530812342293e-6
0.088671875,5.648642553174321e-6
0.088671875,5.648642553174321e-6
0.0888671875,4.007247108722689e-6
0.0888671875,4.007247108722689e-6
0.089,3.5407020995137373e-6
0.0890625,3.4219173744298725e-6
0.0890625,3.4219173744298725e-6
0.0892578125,2.941917871951416e-6
0.0892578125,2.941917871951416e-6
0.089453125,2.7400721039905207e-6
0.089453125,2.7400721039905207e-6
0.0896484375,4.035319157880135e-6
0.0896484375,4.035319157880135e-6
0.08984375,5.950320453640412e-6
0.08984375,5.950320453640412e-6
0.09,6.901660078550975e-6
0.0900390625,7.066466080757339e-6
0.0900390625,7.066466080757339e-6
0.090234375,7.964182224151628e-6
0.090234375,7.964182224151628e-6
0.0904296875,9.021106232076637e-6
0.0904296875,9.021106232076637e-6
0.090625,9.052477887405708e-6
0.090625,9.052477887405708e-6
0.0908203125,7.99286857369741e-6
0.0908203125,7.99286857369741e-6
0.091,7.082940196662113e-6
0.091015625,7.019352965154102e-6
0.091015625,7.019352965154102e-6
0.0912109375,6.197153622350404e-6
0.0912109375,6.197153622350404e-6
0.09140625,5.1806383936092715e-6
0.09140625,5.1806383936092715e-6
0.0916015625,4.658541470331512e-6
0.0916015625,4.658541470331512e-6
0.091796875,4.960369032497303e-6
0.091796875,4.960369032497303e-6
0.0919921875,5.525733607542049e-6
0.0919921875,5.525733607542049e-6
0.092,5.5504344024515095e-6
0.0921875,6.334821196829488e-6
0.0921875,6.334821196829488e-6
0.0923828125,7.414276092604366e-6
0.0923828125,7.414276092604366e-6
0.092578125,8.024565235159598e-6
0.092578125,8.024565235159598e-6
0.0927734375,8.18295659818502e-6
0.0927734375,8.18295659818502e-6
0.09296875,8.21281724786016e-6
0.09296875,8.21281724786016e-6
0.093,8.187993345676325e-6
0.0931640625,7.760602365958214e-6
0.0931640625,7.760602365958214e-6
0.093359375,6.707121373045188e-6
0.093359375,6.707121373045188e-6
0.0935546875,5.8326864012525625e-6
0.0935546875,5.8326864012525625e-6
0.09375,5.361003040049717e-6
0.09375,5.361003040049717e-6
0.0939453125,4.906064973331237e-6
0.0939453125,4.906064973331237e-6
0.094,4.803010201365199e-6
0.094140625,4.718771432904445e-6
0.094140625,4.718771432904445e-6
0.0943359375,5.073878781153285e-6
0.0943359375,5.073878781153285e-6
0.09453125,5.610791922516789e-6
0.09453125,5.610791922516789e-6
0.0947265625,6.0606914658589695e-6
0.0947265625,6.0606914658589695e-6
0.094921875,6.3391439040771935e-6
0.094921875,6.3391439040771935e-6
0.095,6.403410715061231e-6
0.0951171875,6.43737366723407e-6
0.0951171875,6.43737366723407e-6
0.0953125,6.267107741014799e-6
0.0953125,6.267107741014799e-6
0.0955078125,5.742145360809747e-6
0.0955078125,5.742145360809747e-6
0.095703125,5.017748960389756e-6
0.095703125,5.017748960389756e-6
0.0958984375,4.3682353735308155e-6
0.0958984375,4.3682353735308155e-6
0.096,4.0799911391331545e-6
0.09609375,3.826087073360851e-6
0.09609375,3.826087073360851e-6
0.0962890625,3.36248496327074e-6
0.0962890625,3.36248496327074e-6
0.096484375,3.1692584973874727e-6
0.096484375,3.1692584973874727e-6
0.0966796875,3.3069553768139137e-6
0.0966796875,3.3069553768139137e-6
0.096875,3.483815955773739e-6
0.096875,3.483815955773739e-6
0.097,3.5383059034943543e-6
0.0970703125,3.5705806176178356e-6
0.0970703125,3.5705806176178356e-6
0.097265625,3.71853966446567e-6
0.097265625,3.71853966446567e-6
0.0974609375,3.7128650185180856e-6
0.0974609375,3.7128650185180856e-6
0.09765625,3.3375835087612327e-6
0.09765625,3.3375835087612327e-6
0.0978515625,2.8463507134868227e-6
0.0978515625,2.8463507134868227e-6
0.098,2.535140748688436e-6
0.098046875,2.427537428684179e-6
0.098046875,2.427537428684179e-6
0.0982421875,1.8024720913889514e-6
0.0982421875,1.8024720913889514e-6
0.0984375,1.1373815431425793e-6
0.0984375,1.1373815431425793e-6
0.0986328125,8.774665111177526e-7
0.0986328125,8.774665111177526e-7
0.098828125,7.302333984993137e-7
0.098828125,7.302333984993137e-7
0.099,5.178843489050955e-7
0.0990234375,4.935022547836176e-7
0.0990234375,4.935022547836176e-7
0.09921875,4.613448176260526e-7
0.09921875,4.613448176260526e-7
0.0994140625,6.244794998611081e-7
0.0994140625,6.244794998611081e-7
0.099609375,5.312337947593893e-7
0.099609375,5.312337947593893e-7
0.0998046875,2.307253638700324e-7
0.0998046875,2.307253638700324e-7
0.1,3.5060504222084177e-9
0.1,3.5060504222084177e-9
0.1001953125000009,-2.958895618798696e-7
0.1001953125000009,-2.958895618798696e-7
0.100390625,-8.709652400407109e-7
0.100390625,-8.709652400407109e-7
0.1005859375000009,-1.4638669929845083e-6
0.1005859375000009,-1.4638669929845083e-6
0.10078125,-1.749515167848159e-6
0.10078125,-1.749515167848159e-6
0.10097656250000091,-2.080684702032709e-6
0.10097656250000091,-2.080684702032709e-6
0.101,-2.131879574901463e-6
0.101171875,-2.488744846845803e-6
0.101171875,-2.488744846845803e-6
0.10136718750000091,-2.59793083784432e-6
0.10136718750000091,-2.59793083784432e-6
0.1015625,-2.5693056258102587e-6
0.1015625,-2.5693056258102587e-6
0.10175781250000092,-2.7726978520659085e-6
0.10175781250000092,-2.7726978520659085e-6
0.101953125,-2.955955153621792e-6
0.101953125,-2.955955153621792e-6
0.102,-2.9721685430306177e-6
0.10214843750000092,-3.0268125579269167e-6
0.10214843750000092,-3.0268125579269167e-6
0.10234375,-3.3203242091883745e-6
0.10234375,-3.3203242091883745e-6
0.10253906250000093,-3.783001465279545e-6
0.10253906250000093,-3.783001465279545e-6
0.102734375,-4.118107365336243e-6
0.102734375,-4.118107365336243e-6
0.10292968750000094,-4.4572400082765196e-6
0.10292968750000094,-4.4572400082765196e-6
0.103,-4.616162151083181e-6
0.103125,-4.897984237195452e-6
0.103125,-4.897984237195452e-6
0.10332031250000094,-5.1911600610354824e-6
0.10332031250000094,-5.1911600610354824e-6
0.103515625,-5.38615770770412e-6
0.103515625,-5.38615770770412e-6
0.10371093750000095,-5.60013104541901e-6
0.10371093750000095,-5.60013104541901e-6
0.10390625,-5.734444754434964e-6
0.10390625,-5.734444754434964e-6
0.104,-5.745575592130958e-6
0.10410156250000095,-5.76569495708279e-6
0.10410156250000095,-5.76569495708279e-6
0.104296875,-5.967248492527721e-6
0.104296875,-5.967248492527721e-6
0.10449218750000096,-6.245662909576399e-6
0.10449218750000096,-6.245662909576399e-6
0.1046875,-6.361714020186593e-6
0.1046875,-6.361714020186593e-6
0.10488281250000096,-6.5766352718432675e-6
0.10488281250000096,-6.5766352718432675e-6
0.105,-6.820642819205247e-6
0.105078125,-7.006556303618128e-6
0.105078125,-7.006556303618128e-6
0.10527343750000097,-7.368641040589319e-6
0.10527343750000097,-7.368641040589319e-6
0.10546875,-7.515068196628505e-6
0.10546875,-7.515068196628505e-6
0.10566406250000097,-7.72225551920469e-6
0.10566406250000097,-7.72225551920469e-6
0.105859375,-8.008318451796503e-6
0.105859375,-8.008318451796503e-6
0.106,-8.131062595534422e-6
0.10605468750000098,-8.1549681093529e-6
0.10605468750000098,-8.1549681093529e-6
0.10625,-8.228769391216417e-6
0.10625,-8.228769391216417e-6
0.10644531250000099,-8.289951227424819e-6
0.10644531250000099,-8.289951227424819e-6
0.106640625,-8.402247708538813e-6
0.106640625,-8.402247708538813e-6
0.10683593750000099,-8.650710337732015e-6
0.10683593750000099,-8.650710337732015e-6
0.107,-8.78935955397897e-6
0.10703125,-8.802540535368664e-6
0.10703125,-8.802540535368664e-6
0.107226562500001,-8.88600655296612e-6
0.107226562500001,-8.88600655296612e-6
0.107421875,-9.098921099598423e-6
0.107421875,-9.098921099598423e-6
0.107617187500001,-9.400074003490522e-6
0.107617187500001,-9.400074003490522e-6
0.1078125,-9.615095988679823e-6
0.1078125,-9.615095988679823e-6
0.108,-9.665365490935107e-6
0.10800781250000101,-9.666381917322608e-6
0.10800781250000101,-9.666381917322608e-6
0.108203125,-9.74833451555801e-6
0.108203125,-9.74833451555801e-6
0.10839843750000101,-9.942149719610605e-6
0.10839843750000101,-9.942149719610605e-6
0.10859375,-1.0022633584516605e-5
0.10859375,-1.0022633584516605e-5
0.10878906250000102,-9.997179519355415e-6
0.10878906250000102,-9.997179519355415e-6
0.108984375,-1.0063865038434372e-5
0.108984375,-1.0063865038434372e-5
0.109,-1.0072353646056742e-5
0.10917968750000102,-1.0187269526118481e-5
0.10917968750000102,-1.0187269526118481e-5
0.109375,-1.030722151915131e-5
0.109375,-1.030722151915131e-5
0.10957031250000103,-1.0377549271356479e-5
0.10957031250000103,-1.0377549271356479e-5
0.109765625,-1.0397660655497853e-5
0.109765625,-1.0397660655497853e-5
0.10996093750000104,-1.059705864059346e-5
0.10996093750000104,-1.059705864059346e-5
0.11,-1.0652533990462842e-5
0.11015625,-1.0794966323890431e-5
0.11015625,-1.0794966323890431e-5
0.11035156250000104,-1.071481148831599e-5
0.11035156250000104,-1.071481148831599e-5
0.110546875,-1.0695687616274485e-5
0.110546875,-1.0695687616274485e-5
0.11074218750000105,-1.0867103085288043e-5
0.11074218750000105,-1.0867103085288043e-5
0.1109375,-1.0919455143698631e-5
0.1109375,-1.0919455143698631e-5
0.111,-1.088353144251819e-5
0.11113281250000105,-1.0781460615810756e-5
0.11113281250000105,-1.0781460615810756e-5
0.111328125,-1.076461684207386e-5
0.111328125,-1.076461684207386e-5
0.11152343750000106,-1.0883262191813126e-5
0.11152343750000106,-1.0883262191813126e-5
0.11171875,-1.090132672651456e-5
0.11171875,-1.090132672651456e-5
0.11191406250000106,-1.0856693381078308e-5
0.11191406250000106,-1.0856693381078308e-5
0.112,-1.0865513478730549e-5
0.112109375,-1.0897201121629063e-5
0.112109375,-1.0897201121629063e-5
0.11230468750000107,-1.0923300904658317e-5
0.11230468750000107,-1.0923300904658317e-5
0.1125,-1.0927684796407933e-5
0.1125,-1.0927684796407933e-5
0.11269531250000107,-1.0947167822572546e-5
0.11269531250000107,-1.0947167822572546e-5
0.112890625,-1.091270888570195e-5
0.112890625,-1.091270888570195e-5
0.113,-1.0869151729958615e-5
0.11308593750000108,-1.082687832293372e-5
0.11308593750000108,-1.082687832293372e-5
0.11328125,-1.0777632056563347e-5
0.11328125,-1.0777632056563347e-5
0.11347656250000109,-1.0806169882360273e-5
0.11347656250000109,-1.0806169882360273e-5
0.113671875,-1.0717473871296734e-5
0.113671875,-1.0717473871296734e-5
0.11386718750000109,-1.0542643580385702e-5
0.11386718750000109,-1.0542643580385702e-5
0.114,-1.0556706976722063e-5
0.1140625,-1.0594681448372611e-5
0.1140625,-1.0594681448372611e-5
0.1142578125000011,-1.061993493445268e-5
0.1142578125000011,-1.061993493445268e-5
0.114453125,-1.04408905711173e-5
0.114453125,-1.04408905711173e-5
0.1146484375000011,-1.0394190617130095e-5
0.1146484375000011,-1.0394190617130095e-5
0.11484375,-1.0420876224853659e-5
0.11484375,-1.0420876224853659e-5
0.115,-1.032714252502398e-5
0.11503906250000111,-1.0297813023973923e-5
0.11503906250000111,-1.0297813023973923e-5
0.115234375,-1.019791707818074e-5
0.115234375,-1.019791707818074e-5
0.11542968750000111,-1.0121350273506469e-5
0.11542968750000111,-1.0121350273506469e-5
0.115625,-1.0001067120651852e-5
0.115625,-1.0001067120651852e-5
0.11582031250000112,-9.916510336632767e-6
0.11582031250000112,-9.916510336632767e-6
0.116,-9.84325279013154e-6
0.116015625,-9.834802485675365e-6
0.116015625,-9.834802485675365e-6
0.11621093750000112,-9.687335043750966e-6
0.11621093750000112,-9.687335043750966e-6
0.11640625,-9.55103363467491e-6
0.11640625,-9.55103363467491e-6
0.11660156250000113,-9.507694626792462e-6
0.11660156250000113,-9.507694626792462e-6
0.116796875,-9.418770916480579e-6
0.116796875,-9.418770916480579e-6
0.11699218750000114,-9.261334487892237e-6
0.11699218750000114,-9.261334487892237e-6
0.117,-9.255383668776984e-6
0.1171875,-9.146372317359042e-6
0.1171875,-9.146372317359042e-6
0.11738281250000114,-9.057023803771269e-6
0.11738281250000114,-9.057023803771269e-6
0.117578125,-8.957281086380275e-6
0.117578125,-8.957281086380275e-6
0.11777343750000115,-8.76282066053502e-6
0.11777343750000115,-8.76282066053502e-6
0.11796875,-8.59845022307959e-6
0.11796875,-8.59845022307959e-6
0.118,-8.586373411195725e-6
0.11816406250000115,-8.547814071779847e-6
0.11816406250000115,-8.547814071779847e-6
0.118359375,-8.4038686821164e-6
0.118359375,-8.4038686821164e-6
0.11855468750000116,-8.190382719680533e-6
0.11855468750000116,-8.190382719680533e-6
0.11875,-8.067289414576129e-6
0.11875,-8.067289414576129e-6
0.11894531250000116,-7.98005121199763e-6
0.11894531250000116,-7.98005121199763e-6
0.119,-7.951494089830646e-6
0.119140625,-7.850902553174777e-6
0.119140625,-7.850902553174777e-6
0.11933593750000117,-7.641046715967104e-6
0.11933593750000117,-7.641046715967104e-6
0.11953125,-7.504390998530619e-6
0.11953125,-7.504390998530619e-6
0.11972656250000117,-7.430466511859635e-6
0.11972656250000117,-7.430466511859635e-6
0.119921875,-7.2756521656003326e-6
0.119921875,-7.2756521656003326e-6
0.12,-7.187414140574777e-6
0.12011718750000118,-7.0584540805551654e-6
0.12011718750000118,-7.0584540805551654e-6
0.1203125,-6.905727977402076e-6
0.1203125,-6.905727977402076e-6
0.12050781250000119,-6.800063615808316e-6
0.12050781250000119,-6.800063615808316e-6
0.120703125,-6.633885084789126e-6
0.120703125,-6.633885084789126e-6
0.12089843750000119,-6.466930598081344e-6
0.12089843750000119,-6.466930598081344e-6
0.121,-6.399182516159119e-6
0.12109375,-6.328912462466585e-6
0.12109375,-6.328912462466585e-6
0.1212890625000012,-6.143985093659543e-6
0.1212890625000012,-6.143985093659543e-6
0.121484375,-6.026047445650828e-6
0.121484375,-6.026047445650828e-6
0.1216796875000012,-5.917666895172147e-6
0.1216796875000012,-5.917666895172147e-6
0.121875,-5.699182087037791e-6
0.121875,-5.699182087037791e-6
0.122,-5.583302040673699e-6
0.12207031250000121,-5.547037059128179e-6
0.12207031250000121,-5.547037059128179e-6
0.122265625,-5.465701573004189e-6
0.122265625,-5.465701573004189e-6
0.12246093750000121,-5.268357113674682e-6
0.12246093750000121,-5.268357113674682e-6
0.12265625,-5.097820415106424e-6
0.12265625,-5.097820415106424e-6
0.12285156250000122,-4.9796890795594795e-6
0.12285156250000122,-4.9796890795594795e-6
0.123,-4.847555211212606e-6
0.123046875,-4.799685086431804e-6
0.123046875,-4.799685086431804e-6
0.12324218750000122,-4.661417267765033e-6
0.12324218750000122,-4.661417267765033e-6
0.1234375,-4.571038615452938e-6
0.1234375,-4.571038615452938e-6
0.12363281250000123,-4.3428305415982305e-6
0.12363281250000123,-4.3428305415982305e-6
0.123828125,-4.2109524818756405e-6
0.123828125,-4.2109524818756405e-6
0.124,-4.17126719898242e-6
0.12402343750000124,-4.159578026796673e-6
0.12402343750000124,-4.159578026796673e-6
0.12421875,-3.960941341918378e-6
0.12421875,-3.960941341918378e-6
0.12441406250000124,-3.7658648282534735e-6
0.12441406250000124,-3.7658648282534735e-6
0.124609375,-3.704917958452514e-6
0.124609375,-3.704917958452514e-6
0.12480468750000125,-3.5930487104762765e-6
0.12480468750000125,-3.5930487104762765e-6
0.125,-3.3981757814605107e-6
0.125,-3.3981757814605107e-6
0.12519531250000124,-3.2657295321036894e-6
0.12519531250000124,-3.2657295321036894e-6
0.125390625,-3.161542602297951e-6
0.125390625,-3.161542602297951e-6
0.12558593750000122,-3.0460882043670257e-6
0.12558593750000122,-3.0460882043670257e-6
0.12578125,-2.9019887587411475e-6
0.12578125,-2.9019887587411475e-6
0.1259765625000012,-2.769482085884789e-6
0.1259765625000012,-2.769482085884789e-6
0.126,-2.7572801725717078e-6
0.126171875,-2.6859418884028763e-6
0.126171875,-2.6859418884028763e-6
0.12636718750000117,-2.5566136785948324e-6
0.12636718750000117,-2.5566136785948324e-6
0.1265625,-2.4236132444843683e-6
0.1265625,-2.4236132444843683e-6
0.12675781250000115,-2.349923731936876e-6
0.12675781250000115,-2.349923731936876e-6
0.126953125,-2.2067150697024918e-6
0.126953125,-2.2067150697024918e-6
0.127,-2.173224839779886e-6
0.12714843750000113,-2.113645605456016e-6
0.12714843750000113,-2.113645605456016e-6
0.12734375,-2.0365480514483725e-6
0.12734375,-2.0365480514483725e-6
0.1275390625000011,-1.8838177401891976e-6
0.1275390625000011,-1.8838177401891976e-6
0.127734375,-1.8057499795720577e-6
0.127734375,-1.8057499795720577e-6
0.12792968750000108,-1.7685254653510007e-6
0.12792968750000108,-1.7685254653510007e-6
0.128,-1.7165547800401804e-6
0.128125,-1.5945189198451892e-6
0.128125,-1.5945189198451892e-6
0.12832031250000106,-1.506941458867539e-6
0.12832031250000106,-1.506941458867539e-6
0.128515625,-1.530257544291036e-6
0.128515625,-1.530257544291036e-6
0.12871093750000104,-1.3837255410653615e-6
0.12871093750000104,-1.3837255410653615e-6
0.12890625,-1.211734758893579e-6
0.12890625,-1.211734758893579e-6
0.129,-1.2115372811372094e-6
0.12910156250000102,-1.2511674814530416e-6
0.12910156250000102,-1.2511674814530416e-6
0.129296875,-1.2357554076691812e-6
0.129296875,-1.2357554076691812e-6
0.129492187500001,-1.0504069718753062e-6
0.129492187500001,-1.0504069718753062e-6
0.1296875,-9.616560773251237e-7
0.1296875,-9.616560773251237e-7
0.12988281250000097,-9.71959809914491e-7
0.12988281250000097,-9.71959809914491e-7
0.13,-9.570208354403587e-7
0.130078125,-9.343037946918376e-7
0.130078125,-9.343037946918376e-7
0.13027343750000095,-8.490973263108881e-7
0.13027343750000095,-8.490973263108881e-7
0.13046875,-7.445126382898959e-7
0.13046875,-7.445126382898959e-7
0.13066406250000093,-7.232181864214038e-7
0.13066406250000093,-7.232181864214038e-7
0.130859375,-7.671925650876155e-7
0.130859375,-7.671925650876155e-7
0.131,-7.158142134033874e-7
0.1310546875000009,-6.713873816066585e-7
0.1310546875000009,-6.713873816066585e-7
0.13125,-5.260398921735909e-7
0.13125,-5.260398921735909e-7
0.13144531250000088,-5.855895138795475e-7
0.13144531250000088,-5.855895138795475e-7
0.131640625,-6.488023471251658e-7
0.131640625,-6.488023471251658e-7
0.13183593750000086,-4.786079992324943e-7
0.13183593750000086,-4.786079992324943e-7
0.132,-3.8368953342304835e-7
0.13203125,-3.879719183141894e-7
0.13203125,-3.879719183141894e-7
0.13222656250000084,-5.312369146248663e-7
0.13222656250000084,-5.312369146248663e-7
0.132421875,-5.41509627360881e-7
0.132421875,-5.41509627360881e-7
0.13261718750000082,-3.282254468217616e-7
0.13261718750000082,-3.282254468217616e-7
0.1328125,-3.4299055673425727e-7
0.1328125,-3.4299055673425727e-7
0.133,-5.164913302602159e-7
0.1330078125000008,-5.199483973927777e-7
0.1330078125000008,-5.199483973927777e-7
0.133203125,-4.3107553110433017e-7
0.133203125,-4.3107553110433017e-7
0.13339843750000077,-2.7959940229749236e-7
0.13339843750000077,-2.7959940229749236e-7
0.13359375,-3.939576845857218e-7
0.13359375,-3.939576845857218e-7
0.13378906250000075,-4.869055301170988e-7
0.13378906250000075,-4.869055301170988e-7
0.133984375,-3.7820559800616493e-7
0.133984375,-3.7820559800616493e-7
0.134,-3.68525549798715e-7
0.13417968750000073,-3.394379490817556e-7
0.13417968750000073,-3.394379490817556e-7
0.134375,-4.3346429257073993e-7
0.134375,-4.3346429257073993e-7
0.1345703125000007,-4.666188573310137e-7
0.1345703125000007,-4.666188573310137e-7
0.134765625,-4.3012874756387376e-7
0.134765625,-4.3012874756387376e-7
0.13496093750000068,-4.2632473173931373e-7
0.13496093750000068,-4.2632473173931373e-7
0.135,-4.3231812640875944e-7
0.13515625,-4.7114085149901896e-7
0.13515625,-4.7114085149901896e-7
0.13535156250000066,-5.298966752054213e-7
0.13535156250000066,-5.298966752054213e-7
0.135546875,-5.461823129326859e-7
0.135546875,-5.461823129326859e-7
0.13574218750000064,-5.196918217986735e-7
0.13574218750000064,-5.196918217986735e-7
0.1359375,-5.628412266256433e-7
0.1359375,-5.628412266256433e-7
0.136,-5.971978510599385e-7
0.13613281250000062,-6.655064813676503e-7
0.13613281250000062,-6.655064813676503e-7
0.136328125,-6.701527072716651e-7
0.136328125,-6.701527072716651e-7
0.1365234375000006,-6.332495001704075e-7
0.1365234375000006,-6.332495001704075e-7
0.13671875,-7.242950090247113e-7
0.13671875,-7.242950090247113e-7
0.13691406250000057,-8.251972519190964e-7
0.13691406250000057,-8.251972519190964e-7
0.137,-8.236622089374812e-7
0.137109375,-7.960914851223855e-7
0.137109375,-7.960914851223855e-7
0.13730468750000055,-8.052945665859568e-7
0.13730468750000055,-8.052945665859568e-7
0.1375,-9.251318375258499e-7
0.1375,-9.251318375258499e-7
0.13769531250000053,-9.850778361353285e-7
0.13769531250000053,-9.850778361353285e-7
0.137890625,-9.730693023568548e-7
0.137890625,-9.730693023568548e-7
0.138,-9.925197300142408e-7
0.1380859375000005,-1.0298143687803574e-6
0.1380859375000005,-1.0298143687803574e-6
0.13828125,-1.128313445009077e-6
0.13828125,-1.128313445009077e-6
0.13847656250000048,-1.1730302394985515e-6
0.13847656250000048,-1.1730302394985515e-6
0.138671875,-1.1813440463637193e-6
0.138671875,-1.1813440463637193e-6
0.13886718750000046,-1.236267339221886e-6
0.13886718750000046,-1.236267339221886e-6
0.139,-1.335739224395116e-6
0.1390625,-1.3767292616484461e-6
0.1390625,-1.3767292616484461e-6
0.13925781250000044,-1.407597728264598e-6
0.13925781250000044,-1.407597728264598e-6
0.139453125,-1.3941144872409161e-6
0.139453125,-1.3941144872409161e-6
0.13964843750000042,-1.5008280964678988e-6
0.13964843750000042,-1.5008280964678988e-6
0.13984375,-1.64346521053238e-6
0.13984375,-1.64346521053238e-6
0.14,-1.6433632601953185e-6
0.1400390625000004,-1.629830463811821e-6
0.1400390625000004,-1.629830463811821e-6
0.140234375,-1.62037409356941e-6
0.140234375,-1.62037409356941e-6
0.14042968750000037,-1.8199657305650874e-6
0.14042968750000037,-1.8199657305650874e-6
0.140625,-1.902882873605627e-6
0.140625,-1.902882873605627e-6
0.14082031250000035,-1.819406886149899e-6
0.14082031250000035,-1.819406886149899e-6
0.141,-1.908148556717393e-6
0.141015625,-1.926226296522504e-6
0.141015625,-1.926226296522504e-6
0.14121093750000033,-2.151367943348248e-6
0.14121093750000033,-2.151367943348248e-6
0.14140625,-2.10352795970703e-6
0.14140625,-2.10352795970703e-6
0.1416015625000003,-2.0188875861082423e-6
0.1416015625000003,-2.0188875861082423e-6
0.141796875,-2.277108121728766e-6
0.141796875,-2.277108121728766e-6
0.14199218750000028,-2.4279012109107434e-6
0.14199218750000028,-2.4279012109107434e-6
0.142,-2.4258806042842807e-6
0.1421875,-2.2880560870963684e-6
0.1421875,-2.2880560870963684e-6
0.14238281250000026,-2.356021640836925e-6
0.14238281250000026,-2.356021640836925e-6
0.142578125,-2.5892772544944265e-6
0.142578125,-2.5892772544944265e-6
0.14277343750000024,-2.602965384346234e-6
0.14277343750000024,-2.602965384346234e-6
0.14296875,-2.597895775113823e-6
0.14296875,-2.597895775113823e-6
0.143,-2.606740328425783e-6
0.14316406250000022,-2.6939368093503724e-6
0.14316406250000022,-2.6939368093503724e-6
0.143359375,-2.8017568715066332e-6
0.143359375,-2.8017568715066332e-6
0.1435546875000002,-2.8614656005232497e-6
0.1435546875000002,-2.8614656005232497e-6
0.14375,-2.894950483556258e-6
0.14375,-2.894950483556258e-6
0.14394531250000017,-2.9617658384162304e-6
0.14394531250000017,-2.9617658384162304e-6
0.144,-2.9844531511669103e-6
0.144140625,-3.0394952253431917e-6
0.144140625,-3.0394952253431917e-6
0.14433593750000015,-3.127111253997672e-6
0.14433593750000015,-3.127111253997672e-6
0.14453125,-3.184964813940372e-6
0.14453125,-3.184964813940372e-6
0.14472656250000013,-3.176682949856957e-6
0.14472656250000013,-3.176682949856957e-6
0.144921875,-3.305635063122203e-6
0.144921875,-3.305635063122203e-6
0.145,-3.37750170176232e-6
0.1451171875000001,-3.427317809390207e-6
0.1451171875000001,-3.427317809390207e-6
0.1453125,-3.3616694762872434e-6
0.1453125,-3.3616694762872434e-6
0.14550781250000008,-3.4289602411363695e-6
0.14550781250000008,-3.4289602411363695e-6
0.145703125,-3.6093763766120723e-6
0.145703125,-3.6093763766120723e-6
0.14589843750000006,-3.6151356608837837e-6
0.14589843750000006,-3.6151356608837837e-6
0.146,-3.5863047121997838e-6
0.14609375,-3.584661824596047e-6
0.14609375,-3.584661824596047e-6
0.14628906250000004,-3.6876473882840877e-6
0.14628906250000004,-3.6876473882840877e-6
0.146484375,-3.8299592198254295e-6
0.146484375,-3.8299592198254295e-6
0.14667968750000002,-3.824639036253963e-6
0.14667968750000002,-3.824639036253963e-6
0.146875,-3.787312725545e-6
0.146875,-3.787312725545e-6
0.147,-3.858846258308901e-6
0.1470703125,-3.9253718056575515e-6
0.1470703125,-3.9253718056575515e-6
0.147265625,-4.0381580597714795e-6
0.147265625,-4.0381580597714795e-6
0.14746093749999997,-3.981515204587449e-6
0.14746093749999997,-3.981515204587449e-6
0.14765625,-4.018703352592912e-6
0.14765625,-4.018703352592912e-6
0.14785156249999995,-4.131205719515307e-6
0.14785156249999995,-4.131205719515307e-6
0.148,-4.162057841983202e-6
0.148046875,-4.161925381995779e-6
0.148046875,-4.161925381995779e-6
0.14824218749999993,-4.178312312808075e-6
0.14824218749999993,-4.178312312808075e-6
0.1484375,-4.228610651080267e-6
0.1484375,-4.228610651080267e-6
0.1486328124999999,-4.271834764479898e-6
0.1486328124999999,-4.271834764479898e-6
0.148828125,-4.307440605311186e-6
0.148828125,-4.307440605311186e-6
0.149,-4.352059527923391e-6
0.14902343749999988,-4.361903680971668e-6
0.14902343749999988,-4.361903680971668e-6
0.14921875,-4.407550128093796e-6
0.14921875,-4.407550128093796e-6
0.14941406249999986,-4.361662240881525e-6
0.14941406249999986,-4.361662240881525e-6
0.149609375,-4.4228746234331595e-6
0.149609375,-4.4228746234331595e-6
0.14980468749999984,-4.552186305462058e-6
0.14980468749999984,-4.552186305462058e-6
0.15,-4.483160370216677e-6
0.15,-4.483160370216677e-6
0.15019531249999982,-4.45857464420607e-6
0.15019531249999982,-4.45857464420607e-6
0.150390625,-4.62345327478797e-6
0.150390625,-4.62345327478797e-6
0.1505859374999998,-4.596108377330488e-6
0.1505859374999998,-4.596108377330488e-6
0.15078125,-4.521409244229169e-6
0.15078125,-4.521409244229169e-6
0.15097656249999977,-4.654317419361398e-6
0.15097656249999977,-4.654317419361398e-6
0.151,-4.670706853171502e-6
0.151171875,-4.685334226095517e-6
0.151171875,-4.685334226095517e-6
0.15136718749999975,-4.58796142149831e-6
0.15136718749999975,-4.58796142149831e-6
0.1515625,-4.682237254971522e-6
0.1515625,-4.682237254971522e-6
0.15175781249999973,-4.732321931322225e-6
0.15175781249999973,-4.732321931322225e-6
0.151953125,-4.656375278522251e-6
0.151953125,-4.656375278522251e-6
0.152,-4.651689097412426e-6
0.1521484374999997,-4.703166152641991e-6
0.1521484374999997,-4.703166152641991e-6
0.15234375,-4.737252048359064e-6
0.15234375,-4.737252048359064e-6
0.15253906249999968,-4.696373501700268e-6
0.15253906249999968,-4.696373501700268e-6
0.152734375,-4.726099215979218e-6
0.152734375,-4.726099215979218e-6
0.15292968749999966,-4.763032823151825e-6
0.15292968749999966,-4.763032823151825e-6
0.153,-4.742561674542234e-6
0.153125,-4.700426072479225e-6
0.153125,-4.700426072479225e-6
0.15332031249999964,-4.721196631252145e-6
0.15332031249999964,-4.721196631252145e-6
0.153515625,-4.76257332632235e-6
0.153515625,-4.76257332632235e-6
0.15371093749999962,-4.720247585132675e-6
0.15371093749999962,-4.720247585132675e-6
0.15390625,-4.701211847368825e-6
0.15390625,-4.701211847368825e-6
0.154,-4.719988911272566e-6
0.1541015624999996,-4.746777920561218e-6
0.1541015624999996,-4.746777920561218e-6
0.154296875,-4.736520000214739e-6
0.154296875,-4.736520000214739e-6
0.15449218749999957,-4.65655598375081e-6
0.15449218749999957,-4.65655598375081e-6
0.1546875,-4.689187323381194e-6
0.1546875,-4.689187323381194e-6
0.15488281249999955,-4.727895256795289e-6
0.15488281249999955,-4.727895256795289e-6
0.155,-4.689265501456319e-6
0.155078125,-4.655802710529233e-6
0.155078125,-4.655802710529233e-6
0.15527343749999953,-4.620507813302144e-6
0.15527343749999953,-4.620507813302144e-6
0.15546875,-4.663385056447034e-6
0.15546875,-4.663385056447034e-6
0.1556640624999995,-4.613209735992996e-6
0.1556640624999995,-4.613209735992996e-6
0.155859375,-4.587540398559575e-6
0.155859375,-4.587540398559575e-6
0.156,-4.606729840039847e-6
0.15605468749999948,-4.610419518047415e-6
0.15605468749999948,-4.610419518047415e-6
0.15625,-4.5596549320681135e-6
0.15625,-4.5596549320681135e-6
0.15644531249999946,-4.499696786564034e-6
0.15644531249999946,-4.499696786564034e-6
0.156640625,-4.55181668279625e-6
0.156640625,-4.55181668279625e-6
0.15683593749999944,-4.5287596475152014e-6
0.15683593749999944,-4.5287596475152014e-6
0.157,-4.43542962136334e-6
0.15703125,-4.42050863241894e-6
0.15703125,-4.42050863241894e-6
0.15722656249999942,-4.408209765105475e-6
0.15722656249999942,-4.408209765105475e-6
0.157421875,-4.469469700174589e-6
0.157421875,-4.469469700174589e-6
0.1576171874999994,-4.396674347206808e-6
0.1576171874999994,-4.396674347206808e-6
0.1578125,-4.285089059863356e-6
0.1578125,-4.285089059863356e-6
0.158,-4.339424455046537e-6
0.15800781249999937,-4.342320929162646e-6
0.15800781249999937,-4.342320929162646e-6
0.158203125,-4.332073339441411e-6
0.158203125,-4.332073339441411e-6
0.15839843749999935,-4.2227046436194016e-6
0.15839843749999935,-4.2227046436194016e-6
0.15859375,-4.212124128932793e-6
0.15859375,-4.212124128932793e-6
0.15878906249999933,-4.226135926876928e-6
0.15878906249999933,-4.226135926876928e-6
0.158984375,-4.149728754121451e-6
0.158984375,-4.149728754121451e-6
0.159,-4.142844789556399e-6
0.1591796874999993,-4.0935823173993136e-6
0.1591796874999993,-4.0935823173993136e-6
0.159375,-4.094160020395865e-6
0.159375,-4.094160020395865e-6
0.15957031249999928,-4.090389567779074e-6
0.15957031249999928,-4.090389567779074e-6
0.159765625,-3.995583650162615e-6
0.159765625,-3.995583650162615e-6
0.15996093749999926,-3.910912835636271e-6
0.15996093749999926,-3.910912835636271e-6
0.16,-3.911335997919263e-6
0.16015625,-3.974392598971033e-6
0.16015625,-3.974392598971033e-6
0.16035156249999924,-3.974580591703525e-6
0.16035156249999924,-3.974580591703525e-6
0.160546875,-3.7687784709694583e-6
0.160546875,-3.7687784709694583e-6
0.16074218749999922,-3.752718196192717e-6
0.16074218749999922,-3.752718196192717e-6
0.1609375,-3.883369398938186e-6
0.1609375,-3.883369398938186e-6
0.161,-3.876513396949832e-6
0.1611328124999992,-3.754438970993146e-6
0.1611328124999992,-3.754438970993146e-6
0.161328125,-3.5896582933903076e-6
0.161328125,-3.5896582933903076e-6
0.16152343749999917,-3.657671342527369e-6
0.16152343749999917,-3.657671342527369e-6
0.16171875,-3.6769700387240256e-6
0.16171875,-3.6769700387240256e-6
0.16191406249999915,-3.541318996658216e-6
0.16191406249999915,-3.541318996658216e-6
0.162,-3.4986041064222206e-6
0.162109375,-3.5006613901544803e-6
0.162109375,-3.5006613901544803e-6
0.16230468749999913,-3.501362667357455e-6
0.16230468749999913,-3.501362667357455e-6
0.1625,-3.4285658262467322e-6
0.1625,-3.4285658262467322e-6
0.1626953124999991,-3.4382774814489814e-6
0.1626953124999991,-3.4382774814489814e-6
0.162890625,-3.3122327532941753e-6
0.162890625,-3.3122327532941753e-6
0.163,-3.2573156835136174e-6
0.16308593749999908,-3.2794706809613494e-6
0.16308593749999908,-3.2794706809613494e-6
0.16328125,-3.3603019267136602e-6
0.16328125,-3.3603019267136602e-6
0.16347656249999906,-3.2012770431188997e-6
0.16347656249999906,-3.2012770431188997e-6
0.163671875,-3.116872193731357e-6
0.163671875,-3.116872193731357e-6
0.16386718749999904,-3.2008581081766074e-6
0.16386718749999904,-3.2008581081766074e-6
0.164,-3.1535204152999263e-6
0.1640625,-3.1086919050626882e-6
0.1640625,-3.1086919050626882e-6
0.16425781249999902,-3.0305776098082937e-6
0.16425781249999902,-3.0305776098082937e-6
0.164453125,-3.029201709803253e-6
0.164453125,-3.029201709803253e-6
0.164648437499999,-2.9704791718043744e-6
0.164648437499999,-2.9704791718043744e-6
0.16484375,-2.9472432807042814e-6
0.16484375,-2.9472432807042814e-6
0.165,-2.9220672705387862e-6
0.16503906249999897,-2.905486892301745e-6
0.16503906249999897,-2.905486892301745e-6
0.165234375,-2.8320875173903914e-6
0.165234375,-2.8320875173903914e-6
0.16542968749999895,-2.8243055666954398e-6
0.16542968749999895,-2.8243055666954398e-6
0.165625,-2.790584933187734e-6
0.165625,-2.790584933187734e-6
0.16582031249999893,-2.726017696796923e-6
0.16582031249999893,-2.726017696796923e-6
0.166,-2.7181224391270575e-6
0.166015625,-2.7170495527917282e-6
0.166015625,-2.7170495527917282e-6
0.1662109374999989,-2.660115648089878e-6
0.1662109374999989,-2.660115648089878e-6
0.16640625,-2.5953020055258236e-6
0.16640625,-2.5953020055258236e-6
0.16660156249999888,-2.6082435650165436e-6
0.16660156249999888,-2.6082435650165436e-6
0.166796875,-2.56569891471381e-6
0.166796875,-2.56569891471381e-6
0.16699218749999886,-2.4817219924644363e-6
0.16699218749999886,-2.4817219924644363e-6
0.167,-2.4792590251343505e-6
0.1671875,-2.4810212554404742e-6
0.1671875,-2.4810212554404742e-6
0.16738281249999884,-2.4957595081143147e-6
0.16738281249999884,-2.4957595081143147e-6
0.167578125,-2.405384584458492e-6
0.167578125,-2.405384584458492e-6
0.16777343749999882,-2.3201250224369474e-6
0.16777343749999882,-2.3201250224369474e-6
0.16796875,-2.374026955631603e-6
0.16796875,-2.374026955631603e-6
0.168,-2.3828994425434402e-6
0.1681640624999988,-2.363078089373527e-6
0.1681640624999988,-2.363078089373527e-6
0.168359375,-2.2418643414456874e-6
0.168359375,-2.2418643414456874e-6
0.16855468749999877,-2.238152881084421e-6
0.16855468749999877,-2.238152881084421e-6
0.16875,-2.26497807370718e-6
0.16875,-2.26497807370718e-6
0.16894531249999875,-2.188848411133204e-6
0.16894531249999875,-2.188848411133204e-6
0.169,-2.1660379449506273e-6
0.169140625,-2.1411003817695118e-6
0.169140625,-2.1411003817695118e-6
0.16933593749999873,-2.1458035311394674e-6
0.16933593749999873,-2.1458035311394674e-6
0.16953125,-2.1394310204536637e-6
0.16953125,-2.1394310204536637e-6
0.1697265624999987,-2.08900794357314e-6
0.1697265624999987,-2.08900794357314e-6
0.169921875,-2.0335278315131156e-6
0.169921875,-2.0335278315131156e-6
0.17,-2.0366710490327122e-6
0.17011718749999868,-2.0574295260811226e-6
0.17011718749999868,-2.0574295260811226e-6
0.1703125,-2.0401515709034257e-6
0.1703125,-2.0401515709034257e-6
0.17050781249999866,-1.968474408198251e-6
0.17050781249999866,-1.968474408198251e-6
0.170703125,-1.968084234083012e-6
0.170703125,-1.968084234083012e-6
0.17089843749999864,-1.9833667627700002e-6
0.17089843749999864,-1.9833667627700002e-6
0.171,-1.960863818650793e-6
0.17109375,-1.9291288091416448e-6
0.17109375,-1.9291288091416448e-6
0.17128906249999862,-1.8802175194565507e-6
0.17128906249999862,-1.8802175194565507e-6
0.171484375,-1.9252760811716563e-6
0.171484375,-1.9252760811716563e-6
0.1716796874999986,-1.9118910132842615e-6
0.1716796874999986,-1.9118910132842615e-6
0.171875,-1.8143755630695146e-6
0.171875,-1.8143755630695146e-6
0.172,-1.82481936483736e-6
0.17207031249999857,-1.8516471289031777e-6
0.17207031249999857,-1.8516471289031777e-6
0.172265625,-1.8755921456503621e-6
0.172265625,-1.8755921456503621e-6
0.17246093749999855,-1.7930732142956707e-6
0.17246093749999855,-1.7930732142956707e-6
0.17265625,-1.8051392274842648e-6
0.17265625,-1.8051392274842648e-6
0.17285156249999853,-1.8227989803110134e-6
0.17285156249999853,-1.8227989803110134e-6
0.173,-1.772898739815787e-6
0.173046875,-1.7631830443454177e-6
0.173046875,-1.7631830443454177e-6
0.1732421874999985,-1.7783656712233586e-6
0.1732421874999985,-1.7783656712233586e-6
0.1734375,-1.793799592864076e-6
0.1734375,-1.793799592864076e-6
0.17363281249999848,-1.7304960400754688e-6
0.17363281249999848,-1.7304960400754688e-6
0.173828125,-1.7513719235418002e-6
0.173828125,-1.7513719235418002e-6
0.174,-1.7626568892814554e-6
0.17402343749999846,-1.7588263023227135e-6
0.17402343749999846,-1.7588263023227135e-6
0.17421875,-1.734947478793103e-6
0.17421875,-1.734947478793103e-6
0.17441406249999844,-1.7370798826576994e-6
0.17441406249999844,-1.7370798826576994e-6
0.174609375,-1.7162580828178342e-6
0.174609375,-1.7162580828178342e-6
0.17480468749999842,-1.7261956875569417e-6
0.17480468749999842,-1.7261956875569417e-6
0.175,-1.7544011140513405e-6
0.175,-1.7544011140513405e-6
0.175,-1.754401145415141e-6
0.1751953124999984,-1.711751599242639e-6
0.1751953124999984,-1.711751599242639e-6
0.175390625,-1.694064076962487e-6
0.175390625,-1.694064076962487e-6
0.17558593749999837,-1.7538406002493012e-6
0.17558593749999837,-1.7538406002493012e-6
0.17578125,-1.7516241505588503e-6
0.17578125,-1.7516241505588503e-6
0.17597656249999835,-1.658145378891085e-6
0.17597656249999835,-1.658145378891085e-6
0.176,-1.6555007608110017e-6
0.176171875,-1.7381772482449875e-6
0.176171875,-1.7381772482449875e-6
0.17636718749999833,-1.7947450218769312e-6
0.17636718749999833,-1.7947450218769312e-6
0.1765625,-1.679078397209821e-6
0.1765625,-1.679078397209821e-6
0.1767578124999983,-1.7088362079253905e-6
0.1767578124999983,-1.7088362079253905e-6
0.176953125,-1.7945458354873267e-6
0.176953125,-1.7945458354873267e-6
0.177,-1.7935139621227947e-6
0.17714843749999828,-1.747603430413136e-6
0.17714843749999828,-1.747603430413136e-6
0.17734375,-1.7069754944532e-6
0.17734375,-1.7069754944532e-6
0.17753906249999826,-1.7662305195065287e-6
0.17753906249999826,-1.7662305195065287e-6
0.177734375,-1.7988819365211128e-6
0.177734375,-1.7988819365211128e-6
0.17792968749999824,-1.7602275212413865e-6
0.17792968749999824,-1.7602275212413865e-6
0.178,-1.7531356417133104e-6
0.178125,-1.7674840567805106e-6
0.178125,-1.7674840567805106e-6
0.17832031249999822,-1.7969415480600937e-6
0.17832031249999822,-1.7969415480600937e-6
0.178515625,-1.8141797607507115e-6
0.178515625,-1.8141797607507115e-6
0.1787109374999982,-1.8171387959342589e-6
0.1787109374999982,-1.8171387959342589e-6
0.17890625,-1.7938744437118181e-6
0.17890625,-1.7938744437118181e-6
0.179,-1.807752312787958e-6
0.17910156249999817,-1.8469431634082767e-6
0.17910156249999817,-1.8469431634082767e-6
0.179296875,-1.878965531665333e-6
0.179296875,-1.878965531665333e-6
0.17949218749999815,-1.8269444593266293e-6
0.17949218749999815,-1.8269444593266293e-6
0.1796875,-1.845292528224185e-6
0.1796875,-1.845292528224185e-6
0.17988281249999813,-1.915179109857057e-6
0.17988281249999813,-1.915179109857057e-6
0.18,-1.9133580085317625e-6
0.180078125,-1.897703977737919e-6
0.180078125,-1.897703977737919e-6
0.1802734374999981,-1.8836394276022794e-6
0.1802734374999981,-1.8836394276022794e-6
0.18046875,-1.9258669798349892e-6
0.18046875,-1.9258669798349892e-6
0.18066406249999808,-1.9473515489587534e-6
0.18066406249999808,-1.9473515489587534e-6
0.180859375,-1.957678728126133e-6
0.180859375,-1.957678728126133e-6
0.181,-1.956080726395193e-6
0.18105468749999806,-1.9513007709082153e-6
0.18105468749999806,-1.9513007709082153e-6
0.18125,-1.9576385446029576e-6
0.18125,-1.9576385446029576e-6
0.18144531249999804,-2.023792594285645e-6
0.18144531249999804,-2.023792594285645e-6
0.181640625,-2.053726891271257e-6
0.181640625,-2.053726891271257e-6
0.18183593749999802,-1.9660384597552927e-6
0.18183593749999802,-1.9660384597552927e-6
0.182,-2.007744021537139e-6
0.18203125,-2.027273522275941e-6
0.18203125,-2.027273522275941e-6
0.182226562499998,-2.1148541446414093e-6
0.182226562499998,-2.1148541446414093e-6
0.182421875,-2.0622372795542354e-6
0.182421875,-2.0622372795542354e-6
0.18261718749999797,-2.0652798563003394e-6
0.18261718749999797,-2.0652798563003394e-6
0.1828125,-2.101275243582279e-6
0.1828125,-2.101275243582279e-6
0.183,-2.131418884832037e-6
0.18300781249999795,-2.1330656910789614e-6
0.18300781249999795,-2.1330656910789614e-6
0.183203125,-2.1656946153636447e-6
0.183203125,-2.1656946153636447e-6
0.18339843749999793,-2.1366296969471676e-6
0.18339843749999793,-2.1366296969471676e-6
0.18359375,-2.132330355453238e-6
0.18359375,-2.132330355453238e-6
0.1837890624999979,-2.246551295770338e-6
0.1837890624999979,-2.246551295770338e-6
0.183984375,-2.2340189221869977e-6
0.183984375,-2.2340189221869977e-6
0.184,-2.2227058131818467e-6
0.18417968749999789,-2.1350065603775725e-6
0.18417968749999789,-2.1350065603775725e-6
0.184375,-2.282349246762738e-6
0.184375,-2.282349246762738e-6
0.18457031249999786,-2.3224564148494053e-6
0.18457031249999786,-2.3224564148494053e-6
0.184765625,-2.183672253464053e-6
0.184765625,-2.183672253464053e-6
0.18496093749999784,-2.2847137265968875e-6
0.18496093749999784,-2.2847137265968875e-6
0.185,-2.319121826632742e-6
0.18515625,-2.3790902629605704e-6
0.18515625,-2.3790902629605704e-6
0.18535156249999782,-2.270684769267728e-6
0.18535156249999782,-2.270684769267728e-6
0.185546875,-2.312816372473936e-6
0.185546875,-2.312816372473936e-6
0.1857421874999978,-2.4066792894128497e-6
0.1857421874999978,-2.4066792894128497e-6
0.1859375,-2.3290767126038503e-6
0.1859375,-2.3290767126038503e-6
0.186,-2.322488822925628e-6
0.18613281249999777,-2.3860012198229086e-6
0.18613281249999777,-2.3860012198229086e-6
0.186328125,-2.4430650152340583e-6
0.186328125,-2.4430650152340583e-6
0.18652343749999775,-2.343708877361461e-6
0.18652343749999775,-2.343708877361461e-6
0.18671875,-2.450384005425743e-6
0.18671875,-2.450384005425743e-6
0.18691406249999773,-2.5066348997571097e-6
0.18691406249999773,-2.5066348997571097e-6
0.187,-2.4435081091289668e-6
0.187109375,-2.3719771827801495e-6
0.187109375,-2.3719771827801495e-6
0.1873046874999977,-2.473866322849627e-6
0.1873046874999977,-2.473866322849627e-6
0.1875,-2.5821284402316458e-6
0.1875,-2.5821284402316458e-6
0.18769531249999769,-2.4367718106654834e-6
0.18769531249999769,-2.4367718106654834e-6
0.187890625,-2.4233114970240166e-6
0.187890625,-2.4233114970240166e-6
0.188,-2.5436966773484393e-6
0.18808593749999766,-2.6356674745486863e-6
0.18808593749999766,-2.6356674745486863e-6
0.18828125,-2.589085403792435e-6
0.18828125,-2.589085403792435e-6
0.18847656249999764,-2.403728251609838e-6
0.18847656249999764,-2.403728251609838e-6
0.188671875,-2.5729726611523063e-6
0.188671875,-2.5729726611523063e-6
0.18886718749999762,-2.6960509735274307e-6
0.18886718749999762,-2.6960509735274307e-6
0.189,-2.5701001938882584e-6
0.1890625,-2.5078317483773205e-6
0.1890625,-2.5078317483773205e-6
0.1892578124999976,-2.5395153970819706e-6
0.1892578124999976,-2.5395153970819706e-6
0.189453125,-2.672763877109574e-6
0.189453125,-2.672763877109574e-6
0.18964843749999757,-2.6102639293368313e-6
0.18964843749999757,-2.6102639293368313e-6
0.18984375,-2.591053140932331e-6
0.18984375,-2.591053140932331e-6
0.19,-2.6221359248901344e-6
0.19003906249999755,-2.629580915403107e-6
0.19003906249999755,-2.629580915403107e-6
0.190234375,-2.6464857224572924e-6
0.190234375,-2.6464857224572924e-6
0.19042968749999753,-2.6497100356071e-6
0.19042968749999753,-2.6497100356071e-6
0.190625,-2.672412003190683e-6
0.190625,-2.672412003190683e-6
0.1908203124999975,-2.646589153276757e-6
0.1908203124999975,-2.646589153276757e-6
0.191,-2.6395057563521895e-6
0.191015625,-2.644106354643405e-6
0.191015625,-2.644106354643405e-6
0.19121093749999749,-2.7317047232577885e-6
0.19121093749999749,-2.7317047232577885e-6
0.19140625,-2.692743370502626e-6
0.19140625,-2.692743370502626e-6
0.19160156249999746,-2.6241193535336826e-6
0.19160156249999746,-2.6241193535336826e-6
0.191796875,-2.7383242623413295e-6
0.191796875,-2.7383242623413295e-6
0.19199218749999744,-2.7430839474318347e-6
0.19199218749999744,-2.7430839474318347e-6
0.192,-2.7376406773749196e-6
0.1921875,-2.620632041649973e-6
0.1921875,-2.620632041649973e-6
0.19238281249999742,-2.742123110799355e-6
0.19238281249999742,-2.742123110799355e-6
0.192578125,-2.770030593401973e-6
0.192578125,-2.770030593401973e-6
0.1927734374999974,-2.62693395369773e-6
0.1927734374999974,-2.62693395369773e-6
0.19296875,-2.7324641052595133e-6
0.19296875,-2.7324641052595133e-6
0.193,-2.7592239111307038e-6
0.19316406249999737,-2.787574462481679e-6
0.19316406249999737,-2.787574462481679e-6
0.193359375,-2.6422412073290324e-6
0.193359375,-2.6422412073290324e-6
0.19355468749999735,-2.7323741943474644e-6
0.19355468749999735,-2.7323741943474644e-6
0.19375,-2.790728455992486e-6
0.19375,-2.790728455992486e-6
0.19394531249999733,-2.650346906440948e-6
0.19394531249999733,-2.650346906440948e-6
0.194,-2.6453102283108265e-6
0.194140625,-2.7209735360966825e-6
0.194140625,-2.7209735360966825e-6
0.1943359374999973,-2.783536811712395e-6
0.1943359374999973,-2.783536811712395e-6
0.19453125,-2.683804995129435e-6
0.19453125,-2.683804995129435e-6
0.19472656249999729,-2.696469286966874e-6
0.19472656249999729,-2.696469286966874e-6
0.194921875,-2.7435123380881166e-6
0.194921875,-2.7435123380881166e-6
0.195,-2.7344459341827054e-6
0.19511718749999726,-2.7166272270617853e-6
0.19511718749999726,-2.7166272270617853e-6
0.1953125,-2.7034337079512305e-6
0.1953125,-2.7034337079512305e-6
0.19550781249999724,-2.7086055477965054e-6
0.19550781249999724,-2.7086055477965054e-6
0.195703125,-2.7124318871529773e-6
0.195703125,-2.7124318871529773e-6
0.19589843749999722,-2.7106827514278287e-6
0.19589843749999722,-2.7106827514278287e-6
0.196,-2.7060313931848157e-6
0.19609375,-2.6962475200287273e-6
0.19609375,-2.6962475200287273e-6
0.1962890624999972,-2.689055651039496e-6
0.1962890624999972,-2.689055651039496e-6
0.196484375,-2.709243281218132e-6
0.196484375,-2.709243281218132e-6
0.19667968749999717,-2.678607744333039e-6
0.19667968749999717,-2.678607744333039e-6
0.196875,-2.6479065047824157e-6
0.196875,-2.6479065047824157e-6
0.197,-2.6935892308288523e-6
0.19707031249999715,-2.7221464949378493e-6
0.19707031249999715,-2.7221464949378493e-6
0.197265625,-2.6778670429994378e-6
0.197265625,-2.6778670429994378e-6
0.19746093749999713,-2.592313348370734e-6
0.19746093749999713,-2.592313348370734e-6
0.19765625,-2.7138228817502608e-6
0.19765625,-2.7138228817502608e-6
0.1978515624999971,-2.6676816081150356e-6
0.1978515624999971,-2.6676816081150356e-6
0.198,-2.5398312463176254e-6
0.198046875,-2.5319445781657457e-6
0.198046875,-2.5319445781657457e-6
0.19824218749999709,-2.67968732015067e-6
0.19824218749999709,-2.67968732015067e-6
0.1984375,-2.721152662255033e-6
0.1984375,-2.721152662255033e-6
0.19863281249999706,-2.515856599327737e-6
0.19863281249999706,-2.515856599327737e-6
0.198828125,-2.5430800866810266e-6
0.198828125,-2.5430800866810266e-6
0.199,-2.6779498133455704e-6
0.19902343749999704,-2.6824328042129864e-6
0.19902343749999704,-2.6824328042129864e-6
0.19921875,-2.579378806100152e-6
0.19921875,-2.579378806100152e-6
0.19941406249999702,-2.5182361030329226e-6
0.19941406249999702,-2.5182361030329226e-6
0.199609375,-2.582217654534258e-6
0.199609375,-2.582217654534258e-6
0.199804687499997,-2.577757566069039e-6
0.199804687499997,-2.577757566069039e-6
0.2,-2.520728528077054e-6
0.2,-2.520728528077054e-6
0.2,-2.520728511090642e-6
0.20019531249999697,-2.524899182343443e-6
0.20019531249999697,-2.524899182343443e-6
0.200390625,-2.5600297960393092e-6
0.200390625,-2.5600297960393092e-6
0.20058593749999695,-2.49198823754071e-6
0.20058593749999695,-2.49198823754071e-6
0.20078125,-2.4836614306855687e-6
0.20078125,-2.4836614306855687e-6
0.20097656249999693,-2.517115228861666e-6
0.20097656249999693,-2.517115228861666e-6
0.201,-2.516271332075881e-6
0.201171875,-2.468524430421226e-6
0.201171875,-2.468524430421226e-6
0.2013671874999969,-2.452341127334723e-6
0.2013671874999969,-2.452341127334723e-6
0.2015625,-2.4656039127601836e-6
0.2015625,-2.4656039127601836e-6
0.20175781249999689,-2.430399009378803e-6
0.20175781249999689,-2.430399009378803e-6
0.201953125,-2.4214100883823697e-6
0.201953125,-2.4214100883823697e-6
0.202,-2.4285981793936706e-6
0.20214843749999686,-2.4422508468346926e-6
0.20214843749999686,-2.4422508468346926e-6
0.20234375,-2.3946917601103124e-6
0.20234375,-2.3946917601103124e-6
0.20253906249999684,-2.3639650396645173e-6
0.20253906249999684,-2.3639650396645173e-6
0.202734375,-2.404266662814347e-6
0.202734375,-2.404266662814347e-6
0.20292968749999682,-2.380209358110452e-6
0.20292968749999682,-2.380209358110452e-6
0.203,-2.356087289323572e-6
0.203125,-2.3282734340490663e-6
0.203125,-2.3282734340490663e-6
0.2033203124999968,-2.346251833651447e-6
0.2033203124999968,-2.346251833651447e-6
0.203515625,-2.3366679582359495e-6
0.203515625,-2.3366679582359495e-6
0.20371093749999677,-2.2941450280034026e-6
0.20371093749999677,-2.2941450280034026e-6
0.20390625,-2.3272606025082077e-6
0.20390625,-2.3272606025082077e-6
0.204,-2.3349650537518585e-6
0.20410156249999675,-2.304479803316717e-6
0.20410156249999675,-2.304479803316717e-6
0.204296875,-2.224714163778785e-6
0.204296875,-2.224714163778785e-6
0.20449218749999673,-2.2613636438406637e-6
0.20449218749999673,-2.2613636438406637e-6
0.2046875,-2.304274091480263e-6
0.2046875,-2.304274091480263e-6
0.2048828124999967,-2.212183362548803e-6
0.2048828124999967,-2.212183362548803e-6
0.205,-2.1782659042068886e-6
0.205078125,-2.1845448353041697e-6
0.205078125,-2.1845448353041697e-6
0.20527343749999669,-2.2468164022626524e-6
0.20527343749999669,-2.2468164022626524e-6
0.20546875,-2.2212844448255e-6
0.20546875,-2.2212844448255e-6
0.20566406249999666,-2.1351291303317588e-6
0.20566406249999666,-2.1351291303317588e-6
0.205859375,-2.1951417267240814e-6
0.205859375,-2.1951417267240814e-6
0.206,-2.2073191989213647e-6
0.20605468749999664,-2.1866436587525406e-6
0.20605468749999664,-2.1866436587525406e-6
0.20625,-2.10076277273874e-6
0.20625,-2.10076277273874e-6
0.20644531249999662,-2.152647891051629e-6
0.20644531249999662,-2.152647891051629e-6
0.206640625,-2.149732878820032e-6
0.206640625,-2.149732878820032e-6
0.2068359374999966,-2.0742538619500372e-6
0.2068359374999966,-2.0742538619500372e-6
0.207,-2.0857650982475384e-6
0.20703125,-2.0960188575336325e-6
0.20703125,-2.0960188575336325e-6
0.20722656249999657,-2.1247926570433506e-6
0.20722656249999657,-2.1247926570433506e-6
0.207421875,-2.047867664001224e-6
0.207421875,-2.047867664001224e-6
0.20761718749999655,-2.050181310941923e-6
0.20761718749999655,-2.050181310941923e-6
0.2078125,-2.084243181377232e-6
0.2078125,-2.084243181377232e-6
0.208,-2.0251044692276565e-6
0.20800781249999653,-2.0227217679136267e-6
0.20800781249999653,-2.0227217679136267e-6
0.208203125,-2.0117556882581766e-6
0.208203125,-2.0117556882581766e-6
0.2083984374999965,-2.0355202893229674e-6
0.2083984374999965,-2.0355202893229674e-6
0.20859375,-2.004436637947915e-6
0.20859375,-2.004436637947915e-6
0.2087890624999965,-1.982381656606691e-6
0.2087890624999965,-1.982381656606691e-6
0.208984375,-1.9888935430256716e-6
0.208984375,-1.9888935430256716e-6
0.209,-1.9893232690026963e-6
0.20917968749999646,-1.9818820243266977e-6
0.20917968749999646,-1.9818820243266977e-6
0.209375,-1.9667623905039733e-6
0.209375,-1.9667623905039733e-6
0.20957031249999644,-1.9410573470768355e-6
0.20957031249999644,-1.9410573470768355e-6
0.209765625,-1.9358964319926564e-6
0.209765625,-1.9358964319926564e-6
0.20996093749999642,-1.96959609788383e-6
0.20996093749999642,-1.96959609788383e-6
0.21,-1.971246504084423e-6
0.21015625,-1.9235886092316967e-6
0.21015625,-1.9235886092316967e-6
0.2103515624999964,-1.859142016169546e-6
0.2103515624999964,-1.859142016169546e-6
0.210546875,-1.971261144317893e-6
0.210546875,-1.971261144317893e-6
0.21074218749999638,-1.9617766765511746e-6
0.21074218749999638,-1.9617766765511746e-6
0.2109375,-1.7718463978799726e-6
0.2109375,-1.7718463978799726e-6
0.211,-1.7603985702496772e-6
0.21113281249999635,-1.8625296572261085e-6
0.21113281249999635,-1.8625296572261085e-6
0.211328125,-1.9810470285874793e-6
0.211328125,-1.9810470285874793e-6
0.21152343749999633,-1.8293144891101676e-6
0.21152343749999633,-1.8293144891101676e-6
0.21171875,-1.785319776903549e-6
0.21171875,-1.785319776903549e-6
0.2119140624999963,-1.8897176028431772e-6
0.2119140624999963,-1.8897176028431772e-6
0.212,-1.906470840806751e-6
0.212109375,-1.8765991653957315e-6
0.212109375,-1.8765991653957315e-6
0.2123046874999963,-1.7949997191402112e-6
0.2123046874999963,-1.7949997191402112e-6
0.2125,-1.8164618589833204e-6
0.2125,-1.8164618589833204e-6
0.21269531249999626,-1.852662069423694e-6
0.21269531249999626,-1.852662069423694e-6
0.212890625,-1.8149718802873416e-6
0.212890625,-1.8149718802873416e-6
0.213,-1.7935638945143495e-6
0.21308593749999624,-1.7943799234254598e-6
0.21308593749999624,-1.7943799234254598e-6
0.21328125,-1.8215832154333533e-6
0.21328125,-1.8215832154333533e-6
0.21347656249999622,-1.7998751914993782e-6
0.21347656249999622,-1.7998751914993782e-6
0.213671875,-1.777824029713937e-6
0.213671875,-1.777824029713937e-6
0.2138671874999962,-1.8152218309586132e-6
0.2138671874999962,-1.8152218309586132e-6
0.214,-1.7985995279246048e-6
0.2140625,-1.774257940179158e-6
0.2140625,-1.774257940179158e-6
0.21425781249999618,-1.7446603614579281e-6
0.21425781249999618,-1.7446603614579281e-6
0.214453125,-1.8317432217140883e-6
0.214453125,-1.8317432217140883e-6
0.21464843749999615,-1.7715177806909566e-6
0.21464843749999615,-1.7715177806909566e-6
0.21484375,-1.6979253588123022e-6
0.21484375,-1.6979253588123022e-6
0.215,-1.7845294904006437e-6
0.21503906249999613,-1.8097239102843332e-6
0.21503906249999613,-1.8097239102843332e-6
0.215234375,-1.8031078845015536e-6
0.215234375,-1.8031078845015536e-6
0.2154296874999961,-1.6861637457399326e-6
0.2154296874999961,-1.6861637457399326e-6
0.215625,-1.7811838349257592e-6
0.215625,-1.7811838349257592e-6
0.2158203124999961,-1.8252894711245915e-6
0.2158203124999961,-1.8252894711245915e-6
0.216,-1.6821500495312058e-6
0.216015625,-1.672825895970842e-6
0.216015625,-1.672825895970842e-6
0.21621093749999606,-1.7191194960908263e-6
0.21621093749999606,-1.7191194960908263e-6
0.21640625,-1.811411219354575e-6
0.21640625,-1.811411219354575e-6
0.21660156249999604,-1.7186506863775541e-6
0.21660156249999604,-1.7186506863775541e-6
0.216796875,-1.7061348080993355e-6
0.216796875,-1.7061348080993355e-6
0.21699218749999602,-1.7547318202359996e-6
0.21699218749999602,-1.7547318202359996e-6
0.217,-1.7556263669504801e-6
0.2171875,-1.7441193994049975e-6
0.2171875,-1.7441193994049975e-6
0.217382812499996,-1.7130718181768145e-6
0.217382812499996,-1.7130718181768145e-6
0.217578125,-1.7590645711162978e-6
0.217578125,-1.7590645711162978e-6
0.21777343749999598,-1.7721035082129966e-6
0.21777343749999598,-1.7721035082129966e-6
0.21796875,-1.690071118831682e-6
0.21796875,-1.690071118831682e-6
0.218,-1.6840882369750787e-6
0.21816406249999595,-1.7244976708852278e-6
0.21816406249999595,-1.7244976708852278e-6
0.218359375,-1.7871502852595533e-6
0.218359375,-1.7871502852595533e-6
0.21855468749999593,-1.7273645309123786e-6
0.21855468749999593,-1.7273645309123786e-6
0.21875,-1.7012431319796129e-6
0.21875,-1.7012431319796129e-6
0.2189453124999959,-1.7644148258000314e-6
0.2189453124999959,-1.7644148258000314e-6
0.219,-1.7760290884072383e-6
0.219140625,-1.75761323994994e-6
0.219140625,-1.75761323994994e-6
0.2193359374999959,-1.6880632885407643e-6
0.2193359374999959,-1.6880632885407643e-6
0.21953125,-1.7521562579170258e-6
0.21953125,-1.7521562579170258e-6
0.21972656249999586,-1.777350653819898e-6
0.21972656249999586,-1.777350653819898e-6
0.219921875,-1.7008349176284021e-6
0.219921875,-1.7008349176284021e-6
0.22,-1.6995183585999385e-6
0.22011718749999584,-1.7434964602047742e-6
0.22011718749999584,-1.7434964602047742e-6
0.2203125,-1.7804736381354935e-6
0.2203125,-1.7804736381354935e-6
0.22050781249999582,-1.7228186358630992e-6
0.22050781249999582,-1.7228186358630992e-6
0.220703125,-1.7595791083624412e-6
0.220703125,-1.7595791083624412e-6
0.2208984374999958,-1.7804465248238976e-6
0.2208984374999958,-1.7804465248238976e-6
0.221,-1.72994371194779e-6
0.22109375,-1.6981822434924965e-6
0.22109375,-1.6981822434924965e-6
0.22128906249999578,-1.776356779392696e-6
0.22128906249999578,-1.776356779392696e-6
0.221484375,-1.8037462671816051e-6
0.221484375,-1.8037462671816051e-6
0.22167968749999575,-1.7097915655517326e-6
0.22167968749999575,-1.7097915655517326e-6
0.221875,-1.7582612529265518e-6
0.221875,-1.7582612529265518e-6
0.222,-1.7899271926302696e-6
0.22207031249999573,-1.779266196599849e-6
0.22207031249999573,-1.779266196599849e-6
0.222265625,-1.7403873440735573e-6
0.222265625,-1.7403873440735573e-6
0.2224609374999957,-1.7858237638113117e-6
0.2224609374999957,-1.7858237638113117e-6
0.22265625,-1.799105218192043e-6
0.22265625,-1.799105218192043e-6
0.2228515624999957,-1.7348571939024282e-6
0.2228515624999957,-1.7348571939024282e-6
0.223,-1.7634251079368113e-6
0.223046875,-1.7850072530078975e-6
0.223046875,-1.7850072530078975e-6
0.22324218749999566,-1.8231851250938291e-6
0.22324218749999566,-1.8231851250938291e-6
0.2234375,-1.7462624905539847e-6
0.2234375,-1.7462624905539847e-6
0.22363281249999564,-1.798568704802772e-6
0.22363281249999564,-1.798568704802772e-6
0.223828125,-1.8027227255967837e-6
0.223828125,-1.8027227255967837e-6
0.224,-1.7502981164985165e-6
0.22402343749999562,-1.7554966507682401e-6
0.22402343749999562,-1.7554966507682401e-6
0.22421875,-1.8892485266763792e-6
0.22421875,-1.8892485266763792e-6
0.2244140624999956,-1.7769711097015417e-6
0.2244140624999956,-1.7769711097015417e-6
0.224609375,-1.6709441462148256e-6
0.224609375,-1.6709441462148256e-6
0.22480468749999558,-1.9695329124824745e-6
0.22480468749999558,-1.9695329124824745e-6
0.225,-1.8516215460895324e-6
0.225,-1.8516215460895324e-6
0.225,-1.8516215578578965e-6
0.22519531249999555,-1.5902298095560319e-6
0.22519531249999555,-1.5902298095560319e-6
0.225390625,-1.944423960620334e-6
0.225390625,-1.944423960620334e-6
0.22558593749999553,-1.960573087655959e-6
0.22558593749999553,-1.960573087655959e-6
0.22578125,-1.59804973731692e-6
0.22578125,-1.59804973731692e-6
0.2259765624999955,-1.8571829855651423e-6
0.2259765624999955,-1.8571829855651423e-6
0.226,-1.9071564618111658e-6
0.226171875,-2.0108515610406386e-6
0.226171875,-2.0108515610406386e-6
0.2263671874999955,-1.6871925413997069e-6
0.2263671874999955,-1.6871925413997069e-6
0.2265625,-1.7891366561051392e-6
0.2265625,-1.7891366561051392e-6
0.22675781249999546,-1.9736868969721932e-6
0.22675781249999546,-1.9736868969721932e-6
0.226953125,-1.8026319941744084e-6
0.226953125,-1.8026319941744084e-6
0.227,-1.770190285799167e-6
0.22714843749999544,-1.7962550385997034e-6
0.22714843749999544,-1.7962550385997034e-6
0.22734375,-1.8938261074352702e-6
0.22734375,-1.8938261074352702e-6
0.22753906249999542,-1.8429641403527874e-6
0.22753906249999542,-1.8429641403527874e-6
0.227734375,-1.8586809416576422e-6
0.227734375,-1.8586809416576422e-6
0.2279296874999954,-1.8307278558671314e-6
0.2279296874999954,-1.8307278558671314e-6
0.228,-1.8184321500802625e-6
0.228125,-1.8528911850390628e-6
0.228125,-1.8528911850390628e-6
0.22832031249999538,-1.9295781792383337e-6
0.22832031249999538,-1.9295781792383337e-6
0.228515625,-1.835336543853927e-6
0.228515625,-1.835336543853927e-6
0.22871093749999535,-1.8190580357013708e-6
0.22871093749999535,-1.8190580357013708e-6
0.22890625,-1.94890481441945e-6
0.22890625,-1.94890481441945e-6
0.229,-1.9396255989678757e-6
0.22910156249999533,-1.8631512386235727e-6
0.22910156249999533,-1.8631512386235727e-6
0.229296875,-1.810625939291377e-6
0.229296875,-1.810625939291377e-6
0.2294921874999953,-1.998564285343729e-6
0.2294921874999953,-1.998564285343729e-6
0.2296875,-1.8506876318102883e-6
0.2296875,-1.8506876318102883e-6
0.2298828124999953,-1.7589806169948652e-6
0.2298828124999953,-1.7589806169948652e-6
0.23,-1.9395160189006333e-6
0.230078125,-2.047868704335709e-6
0.230078125,-2.047868704335709e-6
0.23027343749999526,-1.8849241189555777e-6
0.23027343749999526,-1.8849241189555777e-6
0.23046875,-1.7142558384475315e-6
0.23046875,-1.7142558384475315e-6
0.23066406249999524,-2.0406666523253847e-6
0.23066406249999524,-2.0406666523253847e-6
0.230859375,-1.9494151544119376e-6
0.230859375,-1.9494151544119376e-6
0.231,-1.7204981280216636e-6
0.23105468749999522,-1.7057985748358817e-6
0.23105468749999522,-1.7057985748358817e-6
0.23125,-1.992857788235547e-6
0.23125,-1.992857788235547e-6
0.2314453124999952,-1.9974186351578993e-6
0.2314453124999952,-1.9974186351578993e-6
0.231640625,-1.7453423453162031e-6
0.231640625,-1.7453423453162031e-6
0.23183593749999518,-1.92896168110801e-6
0.23183593749999518,-1.92896168110801e-6
0.232,-2.015027003532399e-6
0.23203125,-1.994883476241771e-6
0.23203125,-1.994883476241771e-6
0.23222656249999515,-1.8135867539403883e-6
0.23222656249999515,-1.8135867539403883e-6
0.232421875,-1.907624135544239e-6
0.232421875,-1.907624135544239e-6
0.23261718749999513,-1.9334961934847072e-6
0.23261718749999513,-1.9334961934847072e-6
0.2328125,-1.855392362526409e-6
0.2328125,-1.855392362526409e-6
0.233,-1.9552938945732734e-6
0.2330078124999951,-1.9591926617157363e-6
0.2330078124999951,-1.9591926617157363e-6
0.233203125,-1.9171056220290694e-6
0.233203125,-1.9171056220290694e-6
0.2333984374999951,-1.8112581385287818e-6
0.2333984374999951,-1.8112581385287818e-6
0.23359375,-1.971616245710628e-6
0.23359375,-1.971616245710628e-6
0.23378906249999507,-1.962009450184876e-6
0.23378906249999507,-1.962009450184876e-6
0.233984375,-1.7971504466252064e-6
0.233984375,-1.7971504466252064e-6
0.234,-1.795396021242457e-6
0.23417968749999504,-1.9245056594452414e-6
0.23417968749999504,-1.9245056594452414e-6
0.234375,-2.015244869035815e-6
0.234375,-2.015244869035815e-6
0.23457031249999502,-1.8249903462885797e-6
0.23457031249999502,-1.8249903462885797e-6
0.234765625,-1.8331825346051822e-6
0.234765625,-1.8331825346051822e-6
0.234960937499995,-2.0048644586712072e-6
0.234960937499995,-2.0048644586712072e-6
0.235,-2.0104859638214734e-6
0.23515625,-1.907418497759661e-6
0.23515625,-1.907418497759661e-6
0.23535156249999498,-1.8128886566382008e-6
0.23535156249999498,-1.8128886566382008e-6
0.235546875,-1.941865531207565e-6
0.235546875,-1.941865531207565e-6
0.23574218749999495,-1.928277532314837e-6
0.23574218749999495,-1.928277532314837e-6
0.2359375,-1.8382337713118702e-6
0.2359375,-1.8382337713118702e-6
0.236,-1.858508460517161e-6
0.23613281249999493,-1.9489813219975005e-6
0.23613281249999493,-1.9489813219975005e-6
0.236328125,-1.9123100623574807e-6
0.236328125,-1.9123100623574807e-6
0.2365234374999949,-1.8040068202052062e-6
0.2365234374999949,-1.8040068202052062e-6
0.23671875,-1.943815213623079e-6
0.23671875,-1.943815213623079e-6
0.2369140624999949,-1.932081441946565e-6
0.2369140624999949,-1.932081441946565e-6
0.237,-1.8599415907982753e-6
0.237109375,-1.8045158364787817e-6
0.237109375,-1.8045158364787817e-6
0.23730468749999487,-1.8940072698536703e-6
0.23730468749999487,-1.8940072698536703e-6
0.2375,-1.960885502028109e-6
0.2375,-1.960885502028109e-6
0.23769531249999484,-1.8318552965634893e-6
0.23769531249999484,-1.8318552965634893e-6
0.237890625,-1.8197061234515033e-6
0.237890625,-1.8197061234515033e-6
0.238,-1.886387831329106e-6
0.23808593749999482,-1.922174142021671e-6
0.23808593749999482,-1.922174142021671e-6
0.23828125,-1.885987479355311e-6
0.23828125,-1.885987479355311e-6
0.2384765624999948,-1.8348395530720651e-6
0.2384765624999948,-1.8348395530720651e-6
0.238671875,-1.8603261591199072e-6
0.238671875,-1.8603261591199072e-6
0.23886718749999478,-1.9055097195685988e-6
0.23886718749999478,-1.9055097195685988e-6
0.239,-1.886946225992947e-6
0.2390625,-1.8589632768128972e-6
0.2390625,-1.8589632768128972e-6
0.23925781249999475,-1.8049925284424617e-6
0.23925781249999475,-1.8049925284424617e-6
0.239453125,-1.8868412164363413e-6
0.239453125,-1.8868412164363413e-6
0.23964843749999473,-1.8844660482630893e-6
0.23964843749999473,-1.8844660482630893e-6
0.23984375,-1.791413880847248e-6
0.23984375,-1.791413880847248e-6
0.24,-1.840861136304106e-6
0.2400390624999947,-1.8609693526738802e-6
0.2400390624999947,-1.8609693526738802e-6
0.240234375,-1.8693514460266236e-6
0.240234375,-1.8693514460266236e-6
0.2404296874999947,-1.7908902149033068e-6
0.2404296874999947,-1.7908902149033068e-6
0.240625,-1.8609531674540492e-6
0.240625,-1.8609531674540492e-6
0.24082031249999467,-1.8404920822390203e-6
0.24082031249999467,-1.8404920822390203e-6
0.241,-1.7748009881746185e-6
0.241015625,-1.7773823230982089e-6
0.241015625,-1.7773823230982089e-6
0.24121093749999464,-1.868953698858089e-6
0.24121093749999464,-1.868953698858089e-6
0.24140625,-1.8295694178549482e-6
0.24140625,-1.8295694178549482e-6
0.24160156249999462,-1.7656505034713277e-6
0.24160156249999462,-1.7656505034713277e-6
0.241796875,-1.8463336373675254e-6
0.241796875,-1.8463336373675254e-6
0.2419921874999946,-1.803919211784688e-6
0.2419921874999946,-1.803919211784688e-6
0.242,-1.799083253983813e-6
0.2421875,-1.758098479243131e-6
0.2421875,-1.758098479243131e-6
0.24238281249999458,-1.8729651674043168e-6
0.24238281249999458,-1.8729651674043168e-6
0.242578125,-1.7647148483068698e-6
0.242578125,-1.7647148483068698e-6
0.24277343749999455,-1.7015398926512049e-6
0.24277343749999455,-1.7015398926512049e-6
0.24296875,-1.90284844109323e-6
0.24296875,-1.90284844109323e-6
0.243,-1.9143734716342564e-6
0.24316406249999453,-1.7749337802852594e-6
0.24316406249999453,-1.7749337802852594e-6
0.243359375,-1.6415992136198376e-6
0.243359375,-1.6415992136198376e-6
0.2435546874999945,-1.8784118138714945e-6
0.2435546874999945,-1.8784118138714945e-6
0.24375,-1.818796622032881e-6
0.24375,-1.818796622032881e-6
0.2439453124999945,-1.6240698329506031e-6
0.2439453124999945,-1.6240698329506031e-6
0.244,-1.645610016920429e-6
0.244140625,-1.7951504676094743e-6
0.244140625,-1.7951504676094743e-6
0.24433593749999447,-1.8390779366050936e-6
0.24433593749999447,-1.8390779366050936e-6
0.24453125,-1.6722212540787318e-6
0.24453125,-1.6722212540787318e-6
0.24472656249999444,-1.71667798809505e-6
0.24472656249999444,-1.71667798809505e-6
0.244921875,-1.763192209958131e-6
0.244921875,-1.763192209958131e-6
0.245,-1.7465039939823512e-6
0.24511718749999442,-1.7342049495328027e-6
0.24511718749999442,-1.7342049495328027e-6
0.2453125,-1.7486051167026062e-6
0.2453125,-1.7486051167026062e-6
0.2455078124999944,-1.6899520938196133e-6
0.2455078124999944,-1.6899520938196133e-6
0.245703125,-1.7197645862387922e-6
0.245703125,-1.7197645862387922e-6
0.24589843749999438,-1.7815832961121103e-6
0.24589843749999438,-1.7815832961121103e-6
0.246,-1.727703047127438e-6
0.24609375,-1.6542144386511026e-6
0.24609375,-1.6542144386511026e-6
0.24628906249999435,-1.674508754156978e-6
0.24628906249999435,-1.674508754156978e-6
0.246484375,-1.8063721807237698e-6
0.246484375,-1.8063721807237698e-6
0.24667968749999433,-1.6499526641622353e-6
0.24667968749999433,-1.6499526641622353e-6
0.246875,-1.6212819180516647e-6
0.246875,-1.6212819180516647e-6
0.247,-1.7524676154123675e-6
0.2470703124999943,-1.7964937339409737e-6
0.2470703124999943,-1.7964937339409737e-6
0.247265625,-1.659225108641138e-6
0.247265625,-1.659225108641138e-6
0.2474609374999943,-1.5913091588881656e-6
0.2474609374999943,-1.5913091588881656e-6
0.24765625,-1.7744580573797464e-6
0.24765625,-1.7744580573797464e-6
0.24785156249999427,-1.659737101589176e-6
0.24785156249999427,-1.659737101589176e-6
0.248,-1.5583849504174907e-6
0.248046875,-1.5740612657189068e-6
0.248046875,-1.5740612657189068e-6
0.24824218749999424,-1.7509959544526055e-6
0.24824218749999424,-1.7509959544526055e-6
0.2484375,-1.6591920474762212e-6
0.2484375,-1.6591920474762212e-6
0.24863281249999422,-1.5729339520320629e-6
0.24863281249999422,-1.5729339520320629e-6
0.248828125,-1.7233289743567859e-6
0.248828125,-1.7233289743567859e-6
0.249,-1.6600392175880607e-6
0.2490234374999942,-1.6384918344325428e-6
0.2490234374999942,-1.6384918344325428e-6
0.24921875,-1.5746373387415247e-6
0.24921875,-1.5746373387415247e-6
0.24941406249999418,-1.7047226502642232e-6
0.24941406249999418,-1.7047226502642232e-6
0.249609375,-1.6056276715414874e-6
0.249609375,-1.6056276715414874e-6
0.24980468749999415,-1.5814000842162557e-6
0.24980468749999415,-1.5814000842162557e-6
0.25,-1.7090860287005682e-6
0.25,-1.7090860287005682e-6
0.25,-1.7090859910640077e-6
0.25019531249999416,-1.5745812791401192e-6
0.25019531249999416,-1.5745812791401192e-6
0.250390625,-1.558413836755257e-6
0.250390625,-1.558413836755257e-6
0.25058593749999414,-1.73203071640593e-6
0.25058593749999414,-1.73203071640593e-6
0.25078125,-1.5571536126079977e-6
0.25078125,-1.5571536126079977e-6
0.2509765624999941,-1.5209405073712823e-6
0.2509765624999941,-1.5209405073712823e-6
0.251,-1.5491358523744836e-6
0.251171875,-1.7384393664610087e-6
0.251171875,-1.7384393664610087e-6
0.2513671874999941,-1.561219285295401e-6
0.2513671874999941,-1.561219285295401e-6
0.2515625,-1.4792526413787144e-6
0.2515625,-1.4792526413787144e-6
0.25175781249999407,-1.721258465647857e-6
0.25175781249999407,-1.721258465647857e-6
0.251953125,-1.5776881269746745e-6
0.251953125,-1.5776881269746745e-6
0.252,-1.5108963725141145e-6
0.25214843749999405,-1.4610540556292406e-6
0.25214843749999405,-1.4610540556292406e-6
0.25234375,-1.6818005891261478e-6
0.25234375,-1.6818005891261478e-6
0.252539062499994,-1.602112902121533e-6
0.252539062499994,-1.602112902121533e-6
0.252734375,-1.4597440100572179e-6
0.252734375,-1.4597440100572179e-6
0.252929687499994,-1.631147741321115e-6
0.252929687499994,-1.631147741321115e-6
0.253,-1.6646341605697224e-6
0.253125,-1.603469772681887e-6
0.253125,-1.603469772681887e-6
0.253320312499994,-1.486165043529386e-6
0.253320312499994,-1.486165043529386e-6
0.253515625,-1.6056149462762015e-6
0.253515625,-1.6056149462762015e-6
0.25371093749999396,-1.5707592190827846e-6
0.25371093749999396,-1.5707592190827846e-6
0.25390625,-1.4918384757534042e-6
0.25390625,-1.4918384757534042e-6
0.254,-1.5422101942719202e-6
0.25410156249999394,-1.599014260389442e-6
0.25410156249999394,-1.599014260389442e-6
0.254296875,-1.547136679269645e-6
0.254296875,-1.547136679269645e-6
0.2544921874999939,-1.494118779421516e-6
0.2544921874999939,-1.494118779421516e-6
0.2546875,-1.6053585406572424e-6
0.2546875,-1.6053585406572424e-6
0.2548828124999939,-1.524915320016973e-6
0.2548828124999939,-1.524915320016973e-6
0.255,-1.4558374585860179e-6
0.255078125,-1.4724950915812052e-6
0.255078125,-1.4724950915812052e-6
0.25527343749999387,-1.6299965042154696e-6
0.25527343749999387,-1.6299965042154696e-6
0.25546875,-1.5235017310488708e-6
0.25546875,-1.5235017310488708e-6
0.25566406249999385,-1.4306325378798945e-6
0.25566406249999385,-1.4306325378798945e-6
0.255859375,-1.6289077740538893e-6
0.255859375,-1.6289077740538893e-6
0.256,-1.6071878506940251e-6
0.2560546874999938,-1.5460435697223218e-6
0.2560546874999938,-1.5460435697223218e-6
0.25625,-1.4081872946603013e-6
0.25625,-1.4081872946603013e-6
0.2564453124999938,-1.5997724482907927e-6
0.2564453124999938,-1.5997724482907927e-6
0.256640625,-1.564597962522285e-6
0.256640625,-1.564597962522285e-6
0.2568359374999938,-1.409570008437111e-6
0.2568359374999938,-1.409570008437111e-6
0.257,-1.5337541688920098e-6
0.25703125,-1.5642655847303288e-6
0.25703125,-1.5642655847303288e-6
0.25722656249999376,-1.5562968198601368e-6
0.25722656249999376,-1.5562968198601368e-6
0.257421875,-1.43493226878455e-6
0.257421875,-1.43493226878455e-6
0.25761718749999374,-1.5739930902536337e-6
0.25761718749999374,-1.5739930902536337e-6
0.2578125,-1.5216835628772962e-6
0.2578125,-1.5216835628772962e-6
0.258,-1.4163514608922512e-6
0.2580078124999937,-1.4192050503680775e-6
0.2580078124999937,-1.4192050503680775e-6
0.258203125,-1.6029005524553774e-6
0.258203125,-1.6029005524553774e-6
0.2583984374999937,-1.5178101039903247e-6
0.2583984374999937,-1.5178101039903247e-6
0.25859375,-1.3845295898651244e-6
0.25859375,-1.3845295898651244e-6
0.25878906249999367,-1.5920660828006028e-6
0.25878906249999367,-1.5920660828006028e-6
0.258984375,-1.5482483277096115e-6
0.258984375,-1.5482483277096115e-6
0.259,-1.529166129554671e-6
0.25917968749999365,-1.3837442067177186e-6
0.25917968749999365,-1.3837442067177186e-6
0.259375,-1.5372229752452782e-6
0.259375,-1.5372229752452782e-6
0.2595703124999936,-1.559933820616255e-6
0.2595703124999936,-1.559933820616255e-6
0.259765625,-1.4280757751894413e-6
0.259765625,-1.4280757751894413e-6
0.2599609374999936,-1.5021548259719353e-6
0.2599609374999936,-1.5021548259719353e-6
0.26,-1.5284315787456038e-6
0.26015625,-1.561588001353087e-6
0.26015625,-1.561588001353087e-6
0.2603515624999936,-1.4534202720795086e-6
0.2603515624999936,-1.4534202720795086e-6
0.260546875,-1.4673358380012935e-6
0.260546875,-1.4673358380012935e-6
0.26074218749999356,-1.549321226201883e-6
0.26074218749999356,-1.549321226201883e-6
0.2609375,-1.4724385515307858e-6
0.2609375,-1.4724385515307858e-6
0.261,-1.4494610603987823e-6
0.26113281249999354,-1.4591580629330636e-6
0.26113281249999354,-1.4591580629330636e-6
0.261328125,-1.5286311007556286e-6
0.261328125,-1.5286311007556286e-6
0.2615234374999935,-1.4963148878832655e-6
0.2615234374999935,-1.4963148878832655e-6
0.26171875,-1.4517439706485114e-6
0.26171875,-1.4517439706485114e-6
0.2619140624999935,-1.5400200655824037e-6
0.2619140624999935,-1.5400200655824037e-6
0.262,-1.5333794634586617e-6
0.262109375,-1.4727671346914661e-6
0.262109375,-1.4727671346914661e-6
0.26230468749999347,-1.456251712328438e-6
0.26230468749999347,-1.456251712328438e-6
0.2625,-1.5773500235405358e-6
0.2625,-1.5773500235405358e-6
0.26269531249999345,-1.443408734536078e-6
0.26269531249999345,-1.443408734536078e-6
0.262890625,-1.4289795071120714e-6
0.262890625,-1.4289795071120714e-6
0.263,-1.558551764535565e-6
0.2630859374999934,-1.6203965618744043e-6
0.2630859374999934,-1.6203965618744043e-6
0.26328125,-1.4406617256379484e-6
0.26328125,-1.4406617256379484e-6
0.2634765624999934,-1.3886619744662987e-6
0.2634765624999934,-1.3886619744662987e-6
0.263671875,-1.6178689336010521e-6
0.263671875,-1.6178689336010521e-6
0.2638671874999934,-1.4830654025410617e-6
0.2638671874999934,-1.4830654025410617e-6
0.264,-1.3560481882390896e-6
0.2640625,-1.3689712300424262e-6
0.2640625,-1.3689712300424262e-6
0.26425781249999336,-1.5852093828150338e-6
0.26425781249999336,-1.5852093828150338e-6
0.264453125,-1.5112204166389809e-6
0.264453125,-1.5112204166389809e-6
0.26464843749999334,-1.3923769612289583e-6
0.26464843749999334,-1.3923769612289583e-6
0.26484375,-1.5512135290718376e-6
0.26484375,-1.5512135290718376e-6
0.265,-1.5415089693049389e-6
0.2650390624999933,-1.5121420917640904e-6
0.2650390624999933,-1.5121420917640904e-6
0.265234375,-1.4264875414782274e-6
0.265234375,-1.4264875414782274e-6
0.2654296874999933,-1.529007197853538e-6
0.2654296874999933,-1.529007197853538e-6
0.265625,-1.4866872645735718e-6
0.265625,-1.4866872645735718e-6
0.26582031249999327,-1.4482865415277324e-6
0.26582031249999327,-1.4482865415277324e-6
0.266,-1.5513042449510905e-6
0.266015625,-1.5548931567854751e-6
0.266015625,-1.5548931567854751e-6
0.26621093749999325,-1.4516462361058302e-6
0.26621093749999325,-1.4516462361058302e-6
0.26640625,-1.4300556663848774e-6
0.26640625,-1.4300556663848774e-6
0.2666015624999932,-1.593456538107052e-6
0.2666015624999932,-1.593456538107052e-6
0.266796875,-1.4624763043369349e-6
0.266796875,-1.4624763043369349e-6
0.2669921874999932,-1.3934372063428846e-6
0.2669921874999932,-1.3934372063428846e-6
0.267,-1.3996754420486646e-6
0.2671875,-1.593230410656954e-6
0.2671875,-1.593230410656954e-6
0.2673828124999932,-1.5002790888507533e-6
0.2673828124999932,-1.5002790888507533e-6
0.267578125,-1.3865134996793316e-6
0.267578125,-1.3865134996793316e-6
0.26777343749999316,-1.5612226441086285e-6
0.26777343749999316,-1.5612226441086285e-6
0.26796875,-1.5188702194302017e-6
0.26796875,-1.5188702194302017e-6
0.268,-1.4885513867635147e-6
0.26816406249999314,-1.4046706901527095e-6
0.26816406249999314,-1.4046706901527095e-6
0.268359375,-1.5204668220025752e-6
0.268359375,-1.5204668220025752e-6
0.2685546874999931,-1.5107384266910273e-6
0.2685546874999931,-1.5107384266910273e-6
0.26875,-1.4447044117127383e-6
0.26875,-1.4447044117127383e-6
0.2689453124999931,-1.5125331846443935e-6
0.2689453124999931,-1.5125331846443935e-6
0.269,-1.5213127542157423e-6
0.269140625,-1.4869190059774162e-6
0.269140625,-1.4869190059774162e-6
0.26933593749999307,-1.4631931702369094e-6
0.26933593749999307,-1.4631931702369094e-6
0.26953125,-1.5213609860231792e-6
0.26953125,-1.5213609860231792e-6
0.26972656249999305,-1.4850661613774463e-6
0.26972656249999305,-1.4850661613774463e-6
0.269921875,-1.4607272583733177e-6
0.269921875,-1.4607272583733177e-6
0.27,-1.4829872298505187e-6
0.27011718749999303,-1.5189906427681699e-6
0.27011718749999303,-1.5189906427681699e-6
0.2703125,-1.4887341617253469e-6
0.2703125,-1.4887341617253469e-6
0.270507812499993,-1.456457297877023e-6
0.270507812499993,-1.456457297877023e-6
0.270703125,-1.5214690350373594e-6
0.270703125,-1.5214690350373594e-6
0.270898437499993,-1.4867749988378698e-6
0.270898437499993,-1.4867749988378698e-6
0.271,-1.4483485367700055e-6
0.27109375,-1.451049600198484e-6
0.27109375,-1.451049600198484e-6
0.27128906249999296,-1.530745483369067e-6
0.27128906249999296,-1.530745483369067e-6
0.271484375,-1.4961196546092737e-6
0.271484375,-1.4961196546092737e-6
0.27167968749999294,-1.4200783840512265e-6
0.27167968749999294,-1.4200783840512265e-6
0.271875,-1.5347322250836015e-6
0.271875,-1.5347322250836015e-6
0.272,-1.5451808604294293e-6
0.2720703124999929,-1.5060535880628834e-6
0.2720703124999929,-1.5060535880628834e-6
0.272265625,-1.4211736654168305e-6
0.272265625,-1.4211736654168305e-6
0.2724609374999929,-1.5375003418749422e-6
0.2724609374999929,-1.5375003418749422e-6
0.27265625,-1.496676178880385e-6
0.27265625,-1.496676178880385e-6
0.2728515624999929,-1.4111423633500486e-6
0.2728515624999929,-1.4111423633500486e-6
0.273,-1.5079966691478042e-6
0.273046875,-1.5400410388055619e-6
0.273046875,-1.5400410388055619e-6
0.27324218749999285,-1.5004618835190442e-6
0.27324218749999285,-1.5004618835190442e-6
0.2734375,-1.4063956031984404e-6
0.2734375,-1.4063956031984404e-6
0.27363281249999283,-1.5270951244095166e-6
0.27363281249999283,-1.5270951244095166e-6
0.273828125,-1.4969290031419114e-6
0.273828125,-1.4969290031419114e-6
0.274,-1.415723072717423e-6
0.2740234374999928,-1.4202036638932825e-6
0.2740234374999928,-1.4202036638932825e-6
0.27421875,-1.542838396206836e-6
0.27421875,-1.542838396206836e-6
0.2744140624999928,-1.462630519699637e-6
0.2744140624999928,-1.462630519699637e-6
0.274609375,-1.4186656704939793e-6
0.274609375,-1.4186656704939793e-6
0.27480468749999276,-1.5732364181397784e-6
0.27480468749999276,-1.5732364181397784e-6
0.275,-1.4478857226496444e-6
0.275,-1.4478857226496444e-6
0.275,-1.4478856866784184e-6
0.27519531249999274,-1.3903678042770373e-6
0.27519531249999274,-1.3903678042770373e-6
0.275390625,-1.587639161693133e-6
0.275390625,-1.587639161693133e-6
0.2755859374999927,-1.4664841855860367e-6
0.2755859374999927,-1.4664841855860367e-6
0.27578125,-1.3614442104792346e-6
0.27578125,-1.3614442104792346e-6
0.2759765624999927,-1.559732473899178e-6
0.2759765624999927,-1.559732473899178e-6
0.276,-1.5728106442791656e-6
0.276171875,-1.4876883447922928e-6
0.276171875,-1.4876883447922928e-6
0.2763671874999927,-1.3867843583481587e-6
0.2763671874999927,-1.3867843583481587e-6
0.2765625,-1.536396958989883e-6
0.2765625,-1.536396958989883e-6
0.27675781249999265,-1.4632661043956219e-6
0.27675781249999265,-1.4632661043956219e-6
0.276953125,-1.40866730691247e-6
0.276953125,-1.40866730691247e-6
0.277,-1.4422937520963686e-6
0.27714843749999263,-1.5477658852347531e-6
0.27714843749999263,-1.5477658852347531e-6
0.27734375,-1.4335192853320855e-6
0.27734375,-1.4335192853320855e-6
0.2775390624999926,-1.40091132605491e-6
0.2775390624999926,-1.40091132605491e-6
0.277734375,-1.569902692566405e-6
0.277734375,-1.569902692566405e-6
0.2779296874999926,-1.4209098074813298e-6
0.2779296874999926,-1.4209098074813298e-6
0.278,-1.35511778404096e-6
0.278125,-1.3776988814218072e-6
0.278125,-1.3776988814218072e-6
0.27832031249999256,-1.5779683029681912e-6
0.27832031249999256,-1.5779683029681912e-6
0.278515625,-1.4226014550811072e-6
0.278515625,-1.4226014550811072e-6
0.27871093749999254,-1.3669448558628616e-6
0.27871093749999254,-1.3669448558628616e-6
0.27890625,-1.5606345221685913e-6
0.27890625,-1.5606345221685913e-6
0.279,-1.538713492454935e-6
0.2791015624999925,-1.4351278994628736e-6
0.2791015624999925,-1.4351278994628736e-6
0.279296875,-1.3729743821855322e-6
0.279296875,-1.3729743821855322e-6
0.2794921874999925,-1.5322040748388943e-6
0.2794921874999925,-1.5322040748388943e-6
0.2796875,-1.4348795406293746e-6
0.2796875,-1.4348795406293746e-6
0.2798828124999925,-1.389030692522386e-6
0.2798828124999925,-1.389030692522386e-6
0.28,-1.4738741099251662e-6
0.280078125,-1.5110268676288285e-6
0.280078125,-1.5110268676288285e-6
0.28027343749999245,-1.4207482170736085e-6
0.28027343749999245,-1.4207482170736085e-6
0.28046875,-1.3983331916267439e-6
0.28046875,-1.3983331916267439e-6
0.28066406249999243,-1.510993971054475e-6
0.28066406249999243,-1.510993971054475e-6
0.280859375,-1.4000713985939939e-6
0.280859375,-1.4000713985939939e-6
0.281,-1.3628384830655094e-6
0.2810546874999924,-1.396428670696892e-6
0.2810546874999924,-1.396428670696892e-6
0.28125,-1.52824754712233e-6
0.28125,-1.52824754712233e-6
0.2814453124999924,-1.3754435349566663e-6
0.2814453124999924,-1.3754435349566663e-6
0.281640625,-1.3783007946632786e-6
0.281640625,-1.3783007946632786e-6
0.28183593749999236,-1.547301724691419e-6
0.28183593749999236,-1.547301724691419e-6
0.282,-1.408510529488094e-6
0.28203125,-1.3699741360229112e-6
0.28203125,-1.3699741360229112e-6
0.28222656249999234,-1.3555070974557992e-6
0.28222656249999234,-1.3555070974557992e-6
0.282421875,-1.545621939991193e-6
0.282421875,-1.545621939991193e-6
0.2826171874999923,-1.3744201516896482e-6
0.2826171874999923,-1.3744201516896482e-6
0.2828125,-1.3454849928096202e-6
0.2828125,-1.3454849928096202e-6
0.283,-1.5248775038223528e-6
0.2830078124999923,-1.5266094691157583e-6
0.2830078124999923,-1.5266094691157583e-6
0.283203125,-1.3760578969623793e-6
0.283203125,-1.3760578969623793e-6
0.2833984374999923,-1.3529354212504785e-6
0.2833984374999923,-1.3529354212504785e-6
0.28359375,-1.508752104084632e-6
0.28359375,-1.508752104084632e-6
0.28378906249999225,-1.3617959375711308e-6
0.28378906249999225,-1.3617959375711308e-6
0.283984375,-1.3639962048173082e-6
0.283984375,-1.3639962048173082e-6
0.284,-1.379801515266621e-6
0.28417968749999223,-1.5036746479624163e-6
0.28417968749999223,-1.5036746479624163e-6
0.284375,-1.3385922981168363e-6
0.284375,-1.3385922981168363e-6
0.2845703124999922,-1.3689522025406298e-6
0.2845703124999922,-1.3689522025406298e-6
0.284765625,-1.5126977367940775e-6
0.284765625,-1.5126977367940775e-6
0.2849609374999922,-1.314845839206491e-6
0.2849609374999922,-1.314845839206491e-6
0.285,-1.2832796937312096e-6
0.28515625,-1.3473725039014894e-6
0.28515625,-1.3473725039014894e-6
0.28535156249999216,-1.5128759164317884e-6
0.28535156249999216,-1.5128759164317884e-6
0.285546875,-1.3307834486053771e-6
0.285546875,-1.3307834486053771e-6
0.28574218749999214,-1.3309347006718042e-6
0.28574218749999214,-1.3309347006718042e-6
0.2859375,-1.495335395840236e-6
0.2859375,-1.495335395840236e-6
0.286,-1.4708684628605972e-6
0.2861328124999921,-1.334242069161995e-6
0.2861328124999921,-1.334242069161995e-6
0.286328125,-1.3313406602710742e-6
0.286328125,-1.3313406602710742e-6
0.2865234374999921,-1.471660879215353e-6
0.2865234374999921,-1.471660879215353e-6
0.28671875,-1.3416085170581127e-6
0.28671875,-1.3416085170581127e-6
0.2869140624999921,-1.329871340327582e-6
0.2869140624999921,-1.329871340327582e-6
0.287,-1.3892987908437071e-6
0.287109375,-1.4357507984730233e-6
0.287109375,-1.4357507984730233e-6
0.28730468749999205,-1.351793454618111e-6
0.28730468749999205,-1.351793454618111e-6
0.2875,-1.346467777885163e-6
0.2875,-1.346467777885163e-6
0.28769531249999203,-1.4230270234394382e-6
0.28769531249999203,-1.4230270234394382e-6
0.287890625,-1.3168135895025301e-6
0.287890625,-1.3168135895025301e-6
0.288,-1.3027393587217162e-6
0.288085937499992,-1.3508691114050286e-6
0.288085937499992,-1.3508691114050286e-6
0.28828125,-1.4345575262142418e-6
0.28828125,-1.4345575262142418e-6
0.288476562499992,-1.2995361590162346e-6
0.288476562499992,-1.2995361590162346e-6
0.288671875,-1.3339572026427327e-6
0.288671875,-1.3339572026427327e-6
0.28886718749999196,-1.4292520392200636e-6
0.28886718749999196,-1.4292520392200636e-6
0.289,-1.3625476041334572e-6
0.2890625,-1.3192575323284217e-6
0.2890625,-1.3192575323284217e-6
0.28925781249999194,-1.3140817053391984e-6
0.28925781249999194,-1.3140817053391984e-6
0.289453125,-1.3770344718944116e-6
0.289453125,-1.3770344718944116e-6
0.2896484374999919,-1.346787309564057e-6
0.2896484374999919,-1.346787309564057e-6
0.28984375,-1.3559814929231528e-6
0.28984375,-1.3559814929231528e-6
0.29,-1.3348088336861963e-6
0.2900390624999919,-1.3209882822606822e-6
0.2900390624999919,-1.3209882822606822e-6
0.290234375,-1.314520719719603e-6
0.290234375,-1.314520719719603e-6
0.2904296874999919,-1.422652804339286e-6
0.2904296874999919,-1.422652804339286e-6
0.290625,-1.3055427662278518e-6
0.290625,-1.3055427662278518e-6
0.29082031249999185,-1.247654074887361e-6
0.29082031249999185,-1.247654074887361e-6
0.291,-1.4333979774794336e-6
0.291015625,-1.4436258075622987e-6
0.291015625,-1.4436258075622987e-6
0.29121093749999183,-1.342191932596215e-6
0.29121093749999183,-1.342191932596215e-6
0.29140625,-1.2107302735930858e-6
0.29140625,-1.2107302735930858e-6
0.2916015624999918,-1.3991874157071038e-6
0.2916015624999918,-1.3991874157071038e-6
0.291796875,-1.3817554952999522e-6
0.291796875,-1.3817554952999522e-6
0.2919921874999918,-1.2242531278183755e-6
0.2919921874999918,-1.2242531278183755e-6
0.292,-1.2236495751105636e-6
0.2921875,-1.3294530455953968e-6
0.2921875,-1.3294530455953968e-6
0.29238281249999176,-1.3846583081789099e-6
0.29238281249999176,-1.3846583081789099e-6
0.292578125,-1.288354882444942e-6
0.292578125,-1.288354882444942e-6
0.29277343749999174,-1.2848540140719678e-6
0.29277343749999174,-1.2848540140719678e-6
0.29296875,-1.3330692602564476e-6
0.29296875,-1.3330692602564476e-6
0.293,-1.338211076118423e-6
0.2931640624999917,-1.3319890722063299e-6
0.2931640624999917,-1.3319890722063299e-6
0.293359375,-1.2813272212697235e-6
0.293359375,-1.2813272212697235e-6
0.2935546874999917,-1.2945707466016643e-6
0.2935546874999917,-1.2945707466016643e-6
0.29375,-1.3841085537702469e-6
0.29375,-1.3841085537702469e-6
0.2939453124999917,-1.2800454629036118e-6
0.2939453124999917,-1.2800454629036118e-6
0.294,-1.2348121148364477e-6
0.294140625,-1.2213792332516071e-6
0.294140625,-1.2213792332516071e-6
0.29433593749999165,-1.3899293793695477e-6
0.29433593749999165,-1.3899293793695477e-6
0.29453125,-1.3396650470065552e-6
0.29453125,-1.3396650470065552e-6
0.29472656249999163,-1.1888089141987024e-6
0.29472656249999163,-1.1888089141987024e-6
0.294921875,-1.3231478706021704e-6
0.294921875,-1.3231478706021704e-6
0.295,-1.3804750327306436e-6
0.2951171874999916,-1.3814580893112272e-6
0.2951171874999916,-1.3814580893112272e-6
0.2953125,-1.2363385155644835e-6
0.2953125,-1.2363385155644835e-6
0.2955078124999916,-1.2442460856632032e-6
0.2955078124999916,-1.2442460856632032e-6
0.295703125,-1.3539609142187992e-6
0.295703125,-1.3539609142187992e-6
0.29589843749999156,-1.292754430726184e-6
0.29589843749999156,-1.292754430726184e-6
0.296,-1.240253015233339e-6
0.29609375,-1.2426140418853038e-6
0.29609375,-1.2426140418853038e-6
0.29628906249999154,-1.3295912906774454e-6
0.29628906249999154,-1.3295912906774454e-6
0.296484375,-1.2756595324514564e-6
0.296484375,-1.2756595324514564e-6
0.2966796874999915,-1.2577943602209984e-6
0.2966796874999915,-1.2577943602209984e-6
0.296875,-1.3378646934181226e-6
0.296875,-1.3378646934181226e-6
0.297,-1.2943033193546505e-6
0.2970703124999915,-1.2496134118578084e-6
0.2970703124999915,-1.2496134118578084e-6
0.297265625,-1.2496484957380538e-6
0.297265625,-1.2496484957380538e-6
0.2974609374999915,-1.3559832230392033e-6
0.2974609374999915,-1.3559832230392033e-6
0.29765625,-1.2556619942150071e-6
0.29765625,-1.2556619942150071e-6
0.29785156249999145,-1.2075884968099082e-6
0.29785156249999145,-1.2075884968099082e-6
0.298,-1.3248854485725658e-6
0.298046875,-1.3525171853046025e-6
0.298046875,-1.3525171853046025e-6
0.29824218749999143,-1.2788632111626619e-6
0.29824218749999143,-1.2788632111626619e-6
0.2984375,-1.1917393292204537e-6
0.2984375,-1.1917393292204537e-6
0.2986328124999914,-1.3338785115890595e-6
0.2986328124999914,-1.3338785115890595e-6
0.298828125,-1.2921408871768847e-6
0.298828125,-1.2921408871768847e-6
0.299,-1.197239987205112e-6
0.2990234374999914,-1.1988237116900002e-6
0.2990234374999914,-1.1988237116900002e-6
0.29921875,-1.3046186231324697e-6
0.29921875,-1.3046186231324697e-6
0.29941406249999136,-1.2820472013452822e-6
0.29941406249999136,-1.2820472013452822e-6
0.299609375,-1.2245374162445088e-6
