"time","acc_x"
0,-0
5.035165265211776e-5,-0
5.035165265211776e-5,-0
5.2105182012044295e-5,-0
5.2105182012044295e-5,-0
5.639602572906939e-5,-0
5.639602572906939e-5,-0
6.663360520181039e-5,-0
6.663360520181039e-5,-0
0.001,-0
0.002,-0
0.003,-0
0.004,-0
0.005,-0
0.006,-0
0.007,-0
0.008,-0
0.009,-0
0.01,-0
0.011,-0
0.012,-0
0.013,-0
0.014,-0
0.015,-0
0.016,-0
0.017,-0
0.018,-0
0.019,-0
0.02,-0
0.020217177617922917,-0
0.020217177617922917,-0
0.020223941642965735,-0
0.020223941642965735,-0
0.02022646000992373,-0
0.02022646000992373,-0
0.020228072282410546,-0
0.020228072282410546,-0
0.020229476546521616,-0
0.020229476546521616,-0
0.02023105847920841,-0
0.02023105847920841,-0
0.0202334382283697,-0
0.0202334382283697,-0
0.0202391523350727,-0
0.0202391523350727,-0
0.02036900879321734,-0
0.02036900879321734,-0
0.021,-0.0024432286426976646
0.021164626089602054,-0.06514801467069148
0.021164626089602054,-0.06514801467069148
0.022,-0.050589980739453325
0.023,-0.032675340913201095
0.024,-0.09602020863077243
0.025,-0.10097409613981614
0.026,-0.03595363681651426
0.027,-0.013567628071371955
0.028,0.03879877667433646
0.029,-0.023144191254647624
0.03,-0.04765396288692547
0.031,0.011206552147246272
0.032,0.017357371400021297
0.033,0.013955909253873772
0.034,-0.014056493007049586
0.035,0.009148984897186282
0.036,0.025180887161301888
0.037,-0.025403608480334544
0.038,-0.0016852964285462152
0.039,0.007931701587478232
0.04,-0.008332051515320654
0.041,-0.005437197893149545
0.042,0.008398341003008805
0.043,0.009136429821024028
0.044,-0.011380854003857674
0.045,0.00766008229534236
0.046,-0.0012437654180782048
0.047,-0.0078029666386018465
0.048,0.0025826994958522836
0.049,0.00856395543242948
0.05,-0.00753734772161653
0.051,-5.462939328079452e-4
0.052,0.010942124255484464
0.053,-0.011143325026754497
0.054,0.0056710373538643305
0.055,-0.001569929967494943
0.056,-0.0013605027177359258
0.057,0.005229719624714718
0.058,-0.0028757335284465974
0.059,-0.001649944832886191
0.06,0.006661909727222526
0.061,-0.004821450331231297
0.062,-0.0012202039169172396
0.063,0.007667283764903526
0.064,-0.007612760562737686
0.065,0.005539539356070572
0.066,0.006127496557335826
0.067,-0.007817608936273646
0.068,0.007792414760084881
0.069,-0.008438038375756601
0.07,0.012503507737577524
0.071,-0.009686867425854312
0.072,0.010323442049846643
0.073,-0.009683212829371984
0.074,0.008273897325213359
0.075,-0.007998411394926741
0.076,0.0060751423870298304
0.077,-0.0014800002215173969
0.078,0.003113395054024276
0.079,-0.004098746214746568
0.08,0.003009081652757345
0.081,-9.398501651280977e-5
0.082,-0.004311438078333535
0.083,0.007165754756146531
0.084,-0.009441370463369542
0.085,0.01383122153872296
0.086,-0.01625930517461871
0.087,0.01713725322904261
0.088,-0.015882761720481336
0.089,0.012642122699148162
0.09,-0.010411809791767562
0.091,0.008257382280164927
0.092,-0.008351367477999777
0.093,0.005935028115756358
0.094,-0.0020238337956810792
0.095,0.002404691331519021
0.096,-0.009311455676534575
0.097,0.012140475566394748
0.098,-0.012091087844531223
0.099,0.013176626326818708
0.1,-0.01443213632687984
0.101,0.016237863982541983
0.102,-0.007965579799053296
0.103,0.008037384811222514
0.104,-0.008091159450047403
0.105,0.00737883609206158
0.106,-0.004934183532028014
0.107,2.312365740342881e-4
0.108,0.005001256326633313
0.109,-0.009914074197401118
0.11,0.010756138461270492
0.111,-0.010739098612342374
0.112,0.01026025433055408
0.113,-0.00828861521146912
0.114,0.006647932171823023
0.115,-0.010902142813150023
0.116,0.010937715482011334
0.117,-0.0037590503313525703
0.118,-0.0077053131938860375
0.119,0.010975418882873927
0.12,-0.009314305451524701
0.121,0.010535515286618974
0.122,-0.017055378728755483
0.123,0.008367851952499922
0.124,9.46517003378361e-4
0.125,9.817544590557392e-4
0.126,-0.0040578832926368436
0.127,0.008020608745004931
0.128,-0.010555282443522551
0.129,0.004090251144636181
0.13,-0.0023097211511311777
0.131,-0.005904788961341806
0.132,0.0160094503204391
0.133,-0.013658747358841428
0.134,9.784486221070532e-4
0.135,3.334890719721706e-4
0.136,-0.006370713295938413
0.137,0.007139732918092834
0.138,-0.008743195111925062
0.139,0.013784837567685782
0.14,-0.01292732728015572
0.141,0.016096846592792313
0.142,-0.015538209247248191
0.143,0.011969113988042235
0.144,-5.40607278641192e-4
0.145,-0.013318602316818251
0.146,0.01436018314006221
0.147,-0.009326349525658806
0.148,0.007380631916811264
0.149,-0.01204598888749453
0.15,0.013882066574753493
0.151,-0.010914427922316339
0.152,0.010092704355029236
0.153,-0.00702133507346786
0.154,0.0035851776779693423
0.155,-0.0022786276919271042
0.156,-0.001162174926915449
0.157,0.00858087989727696
0.158,-0.015320467968888862
0.159,0.008385679339973195
0.16,0.0012208941570404086
0.161,-0.005062343689593296
0.162,0.007975058495787113
0.163,-0.008814983763806628
0.164,0.005859684037208046
0.165,-0.0029831939487778847
0.166,-1.3953528641436064e-4
0.167,2.4381770199294328e-4
0.168,1.4235711913113125e-5
0.169,-7.173817895619328e-4
0.17,-8.829283370042074e-4
0.171,-3.4333432390892815e-4
0.172,4.95762975152414e-4
0.173,3.85577976949103e-4
0.174,1.9242265124624902e-4
0.175,7.765032272288863e-5
0.176,1.6466699284511943e-5
0.177,-1.5167485442446615e-5
0.178,-1.3886864130507881e-5
0.179,-1.8598350789988949e-6
0.18,-2.25375351632362e-5
0.181,5.0409787113514515e-5
0.182,-5.7503476225850836e-5
0.183,-4.3809079933287975e-5
0.184,-5.113219350122433e-5
0.185,-6.255560390283632e-5
0.186,2.9788522745877177e-5
0.187,1.3233969440318294e-4
0.188,-5.345427161304594e-4
0.189,2.4022494815706397e-4
0.19,-7.36512115487864e-5
0.191,-2.2360209733313097e-4
0.192,2.971922114895498e-4
0.193,-3.811590229330086e-5
0.194,-2.6945740888772995e-4
0.195,2.5626069210982205e-4
0.196,2.569078725089824e-5
0.197,-2.7192331463532504e-5
0.198,-3.1886596726371508e-6
0.199,-4.927222075234994e-6
0.2,4.453544133475873e-8
0.201,-2.917426701276593e-6
0.202,-4.79347448190115e-6
0.203,-6.917689858165765e-7
0.204,-4.402229967448434e-6
0.205,-4.026023439684945e-6
0.206,1.1139010838157049e-6
0.207,4.6877546500123657e-7
0.208,-1.1413666628379282e-5
0.209,-1.5799622133438884e-5
0.21,5.475442310037826e-5
0.211,3.8150265237679726e-5
0.212,-1.1267894309263671e-4
0.213,6.70639705703191e-4
0.214,-0.0012467606698485234
0.215,-4.294249570819808e-4
0.216,0.0016742680286436218
0.217,-6.343355451729482e-4
0.218,-6.575670112668464e-5
0.219,8.827364178848329e-5
0.22,-1.1360989000847033e-4
0.221,1.780621849101771e-4
0.222,-1.3591346308094998e-4
0.223,-1.529203375877919e-4
0.224,4.3377942819927684e-4
0.225,-1.1902038803396353e-4
0.226,-2.130298731661262e-4
0.227,4.938020179142688e-4
0.228,4.262861716930466e-5
0.229,-4.662649228404647e-4
0.23,5.864375321588677e-4
0.231,-0.0011481783523600297
0.232,0.0017024586284229981
0.233,-5.783793361063827e-4
0.234,5.5630092413161414e-5
0.235,-1.5418024154295606e-4
0.236,-0.006607312030161516
0.237,-0.0035833966841609666
0.238,-0.0020262814044429422
0.239,5.877641712818682e-4
0.24,4.1365811394161733e-4
0.241,-2.871484980417893e-4
0.242,5.808528354119824e-4
0.243,-6.728469137448068e-4
0.244,7.028062334598628e-4
0.245,-4.823824813394162e-4
0.246,-9.170708527470595e-4
0.247,0.001815494888821989
0.248,-8.718869365405002e-4
0.249,3.9471052566009135e-4
0.25,2.88040384030519e-5
0.251,-6.245496047020405e-4
0.252,8.169409269491723e-4
0.253,-6.054213323483659e-4
0.254,5.9339993654483614e-5
0.255,3.9066839736273673e-4
0.256,-4.5213583483288966e-4
0.257,7.805070520492952e-4
0.258,-0.0010717801198978916
0.259,6.796493299836004e-4
0.26,-1.8262531689233752e-4
0.261,-2.522091104658064e-4
0.262,4.514867185449467e-4
0.263,-5.172436782606149e-4
0.264,3.6560308775279715e-4
0.265,-1.6053670086574323e-4
0.266,-1.5081660272869835e-4
0.267,4.409202382020805e-4
0.268,-5.77247469092379e-4
0.269,6.245714961079507e-4
0.27,-5.104630083085926e-4
0.271,6.420154766413888e-4
0.272,-4.5519370332053333e-4
0.273,-4.792364143004768e-4
0.274,9.872692193822474e-4
0.275,0.0011856524072674235
0.276,0.0035118959116999804
0.277,-0.004003180226249181
0.278,-0.013652203241170835
0.279,-0.007881749226092583
0.28,-0.0029495569590127224
0.281,-9.60924262294327e-6
0.282,-4.27241716121296e-4
0.283,0.0014177388044945283
0.284,0.001105031168974313
0.285,5.085446830344065e-4
0.286,9.259148231771652e-5
0.287,-4.513100908745682e-4
0.288,1.96418484914751e-4
0.289,-4.583843956856848e-5
0.29,-9.372889004888307e-5
0.291,1.3729714678151206e-4
0.292,-9.493489558576318e-5
0.293,-3.3324399030754126e-5
0.294,1.2216290316341416e-4
0.295,-1.5719519352769273e-4
0.296,6.991736495781664e-5
0.297,3.129127697315548e-5
0.298,-7.728351154062674e-5
0.299,7.325714629141666e-5
0.3,-4.790112927310908e-5
0.301,-2.1279298910825695e-5
0.302,4.642757314010648e-5
0.303,-2.2428201578661433e-5
0.304,-1.2599952399439118e-5
0.305,1.931106208191702e-5
0.306,-7.529975222853036e-6
0.307,-1.1189501034347682e-5
0.308,1.652040546423761e-5
0.309,-9.96391186497414e-6
0.31,-2.1843814199007383e-5
0.311,2.4587673321141423e-5
0.312,-1.162965537204741e-6
0.313,-2.105433697252579e-5
0.314,1.1220012371193633e-5
0.315,4.967324119586891e-6
0.316,-9.695266792231205e-6
0.317,3.122300108793219e-6
0.318,4.237085233227411e-6
0.319,-8.848896631441505e-6
0.32,-1.0654902914297715e-5
0.321,-5.057399519781125e-6
0.322,3.3865344074013315e-6
0.323,3.4448653728480494e-6
0.324,-3.878961246595036e-6
0.325,-4.835521582924329e-6
0.326,-3.2291849921817217e-7
0.327,1.4745305133567754e-6
0.328,-4.0468055662046254e-7
0.329,-3.525664393044803e-6
0.33,-2.5096651654621382e-6
0.331,1.5431083460470951e-6
0.332,2.6644626524019444e-6
0.333,-1.97818405844874e-6
0.334,-6.101405551739436e-6
0.335,-3.6549618870340694e-6
0.336,4.6163037074609115e-6
0.337,5.028866292222656e-6
0.338,-7.669826802725321e-6
0.339,-1.0528566200151968e-5
0.34,-7.467791607318475e-9
0.341,1.010701515918866e-5
0.342,5.248609809382909e-6
0.343,-9.067016042085818e-6
0.344,-1.1329593938513849e-5
0.345,2.9770926719963064e-6
0.346,5.01204236325048e-6
0.347,-2.353210856065324e-6
0.348,-4.120122415740557e-6
0.349,-1.6046234167510498e-6
0.35,3.35480609681138e-6
0.351,4.371363623634217e-6
0.352,-2.2430067874168458e-6
0.353,-8.287266231921109e-6
0.354,-3.5368441946848073e-6
0.355,6.160684686895568e-6
0.356,6.356093151083098e-6
0.357,-1.3081282016491613e-5
0.358,-1.7232805764655357e-5
0.359,5.682427190067951e-6
0.36,1.4960105993722106e-5
0.361,-1.0318430613609486e-5
0.362,-1.2553012694593857e-5
0.363,1.9918355269044064e-6
0.364,3.862467553850113e-6
0.365,-4.409275761174669e-8
0.366,-2.4089825341189197e-6
0.367,-3.1230043627816784e-6
0.368,-1.3973785858989451e-6
0.369,6.033480510259093e-6
0.37,6.381196377081011e-6
0.371,-7.760743907458956e-6
0.372,-1.3487351444463336e-5
0.373,2.4394929859505865e-6
0.374,1.9208756083410883e-5
0.375,-6.950439751907123e-6
0.376,-1.2388155801068557e-5
0.377,5.112351800951043e-6
0.378,1.249194497021655e-5
0.379,4.317427827915665e-6
0.38,-8.648807837408068e-6
0.381,-5.509103007783622e-6
0.382,9.362349356223376e-6
0.383,1.1312185748346693e-5
0.384,2.767448095686298e-7
0.385,-1.3281616616456215e-5
0.386,-2.8504729434608578e-6
0.387,8.09871785040217e-6
0.388,8.962844612603327e-7
0.389,-2.062789197565529e-6
0.39,2.822081422437783e-7
0.391,-1.2090424645339048e-6
0.392,-1.1288025763556142e-6
0.393,-1.8765954137855978e-6
0.394,-6.07528039026084e-6
0.395,-6.214625269285179e-6
0.396,-3.0276664340078696e-6
0.397,8.880659559951098e-7
0.398,3.5267710301045696e-6
0.399,2.267339963391013e-6
0.4,7.1753243515160214e-6
0.401,1.2934112606777237e-5
0.402,-3.634108320937912e-6
0.403,-2.3489739392534847e-5
0.404,-7.711647222241602e-6
0.405,1.8737069172325427e-6
0.406,-1.0644134394999227e-6
0.407,7.922760605350021e-7
0.408,1.6314266869654759e-6
0.409,2.2358563699920175e-6
0.41,2.7082732735883575e-6
0.411,3.1423807110297908e-6
0.412,2.7050486758328773e-6
0.413,-1.2580863290034827e-6
0.414,-1.354223364546936e-5
0.415,-2.7715462931343637e-6
0.416,3.096948003755706e-5
0.417,-4.929226280703247e-6
0.418,-6.109946866361682e-5
0.419,-2.963961955027017e-5
0.42,-8.498748187590888e-6
0.421,-5.303538974654742e-7
0.422,1.7707757106188993e-6
0.423,9.372760549908321e-7
0.424,-3.0771189396539e-7
0.425,-1.0354525408207138e-6
0.426,-1.0952957899545979e-6
0.427,-1.0612065735604581e-6
0.428,-8.4284880680352e-7
0.429,-7.224791437887568e-7
0.43,-6.316948337192763e-7
0.431,-6.029405661966969e-7
0.432,-6.510031997364329e-7
0.433,-7.171236746650322e-7
0.434,-7.456220105783729e-7
0.435,-7.673931096685571e-7
0.436,-7.57732639355968e-7
0.437,-7.179361362075198e-7
0.438,-6.997601789682228e-7
0.439,-7.02026383581078e-7
0.44,-7.072790064732715e-7
0.441,-7.143711364676619e-7
0.442,-7.198675918140829e-7
0.443,-7.15435381715146e-7
0.444,-7.043031555187262e-7
0.445,-6.990088935454608e-7
0.446,-6.969199878859023e-7
0.447,-6.955629973659505e-7
0.448,-6.946994479672952e-7
0.449,-6.923461370877959e-7
0.45,-6.856316596692835e-7
0.451,-6.815493107659165e-7
0.452,-6.807611801495916e-7
0.453,-6.812995604343897e-7
0.454,-6.835039528807485e-7
0.455,-6.863138924395606e-7
0.456,-6.856288930490173e-7
0.457,-6.823939075473184e-7
0.458,-6.753287956073883e-7
0.459,-6.629610628805516e-7
0.46,-6.55451331543766e-7
0.461,-6.510511927904084e-7
0.462,-6.502239807137933e-7
0.463,-6.548341220380394e-7
0.464,-6.562580948110686e-7
0.465,-6.56335498283589e-7
0.466,-6.550233471180889e-7
0.467,-6.511540089348955e-7
0.468,-6.481493057264309e-7
0.469,-6.446938240478595e-7
0.47,-6.403014433664644e-7
0.471,-6.348747899065366e-7
0.472,-6.305292060138079e-7
0.473,-6.273369337894685e-7
0.474,-6.259071407277439e-7
0.475,-6.271414064173975e-7
0.476,-6.266807539567765e-7
0.477,-6.255131986820928e-7
0.478,-6.234016040607138e-7
0.479,-6.196359635946003e-7
0.48,-6.166708541033294e-7
0.481,-6.135809778040624e-7
0.482,-6.102040590594271e-7
0.483,-6.065894987972165e-7
0.484,-6.033224063672904e-7
0.485,-6.006125509716576e-7
0.486,-5.988648032473343e-7
0.487,-5.986188987283647e-7
0.488,-5.976379752192784e-7
0.489,-5.962200705922349e-7
0.49,-5.938220118406612e-7
0.491,-5.895294673541329e-7
0.492,-5.861742107260426e-7
0.493,-5.828167088939296e-7
0.494,-5.795884577830535e-7
0.495,-5.769099662433774e-7
0.496,-5.74972914280103e-7
0.497,-5.745094829867625e-7
0.498,-5.763096349031827e-7
0.499,-5.813295639311988e-7
0.5,-5.842587033066948e-7
0.501,-5.857536956588305e-7
0.502,-5.84241753198711e-7
0.503,-5.774282963999511e-7
0.504,-5.707806760568701e-7
0.505,-5.614995174374471e-7
0.506,-5.493644364973349e-7
0.507,-5.345626784558632e-7
0.508,-5.235226603339527e-7
0.509,-5.174666846130549e-7
0.51,-5.203968315159457e-7
0.511,-5.374938185642719e-7
0.512,-5.522879481523191e-7
0.513,-5.709488352101388e-7
0.514,-5.913503853260949e-7
0.515,-6.098950503519163e-7
0.516,-6.205827800531694e-7
0.517,-6.168386527116709e-7
0.518,-5.899584745172604e-7
0.519,-5.292755899111157e-7
0.52,-4.944260773021014e-7
0.521,-4.634809652737104e-7
0.522,-4.4368076457246275e-7
0.523,-4.437264610190894e-7
0.524,-4.737062673232373e-7
0.525,-5.450848161725474e-7
0.526,-6.706953108448488e-7
0.527,-7.343551831073825e-7
0.528,-7.665034610360166e-7
0.529,-7.824374236298226e-7
0.53,-7.738146939884061e-7
0.531,-7.311836753842726e-7
0.532,-6.43983355308464e-7
0.533,-5.44996291096389e-7
0.534,-5.077098641503852e-7
0.535,-4.685388201863816e-7
0.536,-4.280927028421644e-7
0.537,-3.86981620748017e-7
0.538,-3.4581574437364537e-7
0.539,-3.052061726682709e-7
0.54,-2.8863758361197256e-7
0.541,-2.875078832786926e-7
0.542,-3.013556569841924e-7
0.543,-3.322236585834304e-7
0.544,-3.821399918724211e-7
0.545,-4.531183653844195e-7
0.546,-5.087359647992784e-7
0.547,-5.042695579993151e-7
0.548,-4.78849031426698e-7
0.549,-4.2833686220156153e-7
0.55,-3.4858082353927955e-7
0.551,-2.354133133986025e-7
0.552,-8.465201384311172e-8
0.553,-1.0396811511714787e-7
0.554,-1.8408316393436763e-7
0.555,-3.2417807793727604e-7
0.556,-5.332026168369808e-7
0.557,-8.201084673586934e-7
0.558,-1.1938502716413169e-6
0.559,-1.4907440265554683e-6
0.56,-1.581874970346675e-6
0.561,-1.6015082806575265e-6
0.562,-1.535065450530837e-6
0.563,-1.3679251086307076e-6
0.564,-1.0854219731903925e-6
0.565,-9.503735063365326e-7
0.566,-9.851517406289645e-7
0.567,-1.0933838423543563e-6
0.568,-1.2909112859782468e-6
0.569,-1.5936126381843607e-6
0.57,-2.0174024806252078e-6
0.571,-1.973637096863712e-6
0.572,-1.6439000641854662e-6
0.573,-1.0823436351614646e-6
0.574,-2.5199117847929386e-7
0.575,8.842421680421708e-7
0.576,2.335610082115913e-6
0.577,2.236978388303612e-6
0.578,1.6285591979414704e-6
0.579,4.108100012389926e-7
0.58,-1.5160242856637751e-6
0.581,-4.2519108361949165e-6
0.582,-7.126021432490859e-6
0.583,-6.649903253164169e-6
0.584,-4.975264503270793e-6
0.585,-1.8710188876003286e-6
0.586,2.8943604043485394e-6
0.587,9.552838611703862e-6
0.588,1.4906535987346814e-5
0.589,1.456390485665704e-5
0.59,1.3133212420246565e-5
0.591,1.0612143633625948e-5
0.592,6.998396956392483e-6
0.593,2.2896831136653972e-6
0.594,-7.686585483668296e-7
0.595,-1.5400977234625302e-6
0.596,-1.8621218389469618e-6
0.597,-1.7351613782468078e-6
0.598,-1.1596469261521136e-6
0.599,-7.237075404509241e-7
0.6,-6.020430556308298e-7
0.601,-4.134058650961947e-7
0.602,-1.5858205715257867e-7
0.603,1.6164450766797955e-7
0.604,3.523024370011285e-7
0.605,3.550439557908902e-7
0.606,2.9511424681771814e-7
0.607,1.7158785892146255e-7
0.608,-1.6456964679889552e-8
0.609,-1.6461138674372933e-7
0.61,-2.4263395259627174e-7
0.611,-3.1978824510670023e-7
0.612,-3.969178790086403e-7
0.613,-4.748638131601979e-7
0.614,-5.288867578334688e-7
0.615,-5.44250988054884e-7
0.616,-5.320748835968558e-7
0.617,-4.884323969722715e-7
0.618,-4.093826674322898e-7
0.619,-3.3175081504133175e-7
0.62,-2.7633843702190575e-7
0.621,-2.2272703925629855e-7
0.622,-1.7445526934167788e-7
0.623,-1.3505932350277305e-7
0.624,-1.0807249117839035e-7
0.625,-9.702479020212706e-8
0.626,-1.0544447248683753e-7
0.627,-1.3685604394186868e-7
0.628,-1.947815728708946e-7
0.629,-2.3092986400907733e-7
0.63,-2.3573489227324274e-7
0.631,-2.4401541420804307e-7
0.632,-2.558709315536589e-7
0.633,-2.713955452593453e-7
0.634,-2.9067841944563355e-7
0.635,-3.1380315690388016e-7
0.636,-3.408485833578112e-7
0.637,-3.7188728430059825e-7
0.638,-3.9318039757318957e-7
0.639,-4.0145197210961214e-7
0.64,-4.0522246058660727e-7
0.641,-4.037362150155488e-7
0.642,-3.962315120453752e-7
0.643,-3.819397665916213e-7
0.644,-3.600853824003991e-7
0.645,-3.298873547663561e-7
0.646,-2.9055663230970197e-7
0.647,-2.673527242924578e-7
0.648,-2.659624218637191e-7
0.649,-2.697396591644363e-7
0.65,-2.794657281146584e-7
0.651,-2.959168233784837e-7
0.652,-3.1986530069083585e-7
0.653,-3.520782106969378e-7
0.654,-3.9331953838317446e-7
0.655,-4.443478165416792e-7
0.656,-4.7467497366060485e-7
0.657,-4.772980433109808e-7
0.658,-4.719465274138912e-7
0.659,-4.5745459831270097e-7
0.66,-4.3265065152731097e-7
0.661,-3.963563341979892e-7
0.662,-3.4738794429944875e-7
0.663,-2.8455543321648236e-7
0.664,-2.066631972219568e-7
0.665,-1.5888133775288082e-7
0.666,-1.5147762821854371e-7
0.667,-1.5507930939406833e-7
0.668,-1.7129525864412187e-7
0.669,-2.0173076420437752e-7
0.67,-2.4798816045112915e-7
0.671,-3.1166660496850795e-7
0.672,-3.943614668155959e-7
0.673,-4.976654680577397e-7
0.674,-5.809029363090801e-7
0.675,-6.302561887938651e-7
0.676,-6.690868721292986e-7
0.677,-6.93179380006903e-7
0.678,-6.979396847128783e-7
0.679,-6.78394734610066e-7
0.68,-6.291930172430682e-7
0.681,-5.446036142053856e-7
0.682,-4.185154383051781e-7
0.683,-3.2739699629136254e-7
0.684,-2.945505618301425e-7
0.685,-2.700059061888638e-7
0.686,-2.574980585423603e-7
0.687,-2.6111567341668973e-7
0.688,-2.853028441274219e-7
0.689,-3.3485879735728474e-7
0.69,-4.1493720359664366e-7
0.691,-5.310484251230818e-7
0.692,-6.088835211581767e-7
0.693,-6.255702051927159e-7
0.694,-6.289518111879389e-7
0.695,-6.149926448095755e-7
0.696,-5.793058366343473e-7
0.697,-5.171527939218379e-7
0.698,-4.234433815808458e-7
0.699,-2.927352277248829e-7
0.7,-1.1923436438188162e-7
0.701,7.9095797689277e-9
0.702,6.06898147292867e-8
0.703,9.497880815168003e-8
0.704,1.0495643076868788e-7
0.705,8.431553144561121e-8
0.706,2.6261621766110466e-8
0.707,-7.648666089377087e-8
0.708,-2.3169842344739067e-7
0.709,-4.4763042372775175e-7
0.71,-6.04225626754662e-7
0.711,-6.641741084889574e-7
0.712,-7.034110106607372e-7
0.713,-7.145568883260012e-7
0.714,-6.895879086643575e-7
0.715,-6.198359325804148e-7
0.716,-4.959880651744797e-7
0.717,-3.080873778316118e-7
0.718,-4.553201859991418e-8
0.719,1.3562489675766898e-7
0.72,1.9803642503646302e-7
0.721,2.488027965874551e-7
0.722,2.8544178520828467e-7
0.723,3.0547453855334084e-7
0.724,3.064249637363403e-7
0.725,2.858209596778849e-7
0.726,2.411923569756169e-7
0.727,1.7007251273959412e-7
0.728,6.999806279051057e-8
0.729,-1.7765043658357627e-8
0.73,-7.774781174418877e-8
0.731,-1.461039077499393e-7
0.732,-2.227923876496618e-7
0.733,-3.0776872472770833e-7
0.734,-4.0098631270968355e-7
0.735,-5.023952730498493e-7
0.736,-6.119431282813892e-7
0.737,-7.295744384183678e-7
0.738,-8.552313256471322e-7
0.739,-9.584937900042334e-7
0.74,-1.0194825789122675e-6
0.741,-1.067151284228629e-6
0.742,-1.0995939266900123e-6
0.743,-1.1149011934774578e-6
0.744,-1.111162166722579e-6
0.745,-1.0864630722862145e-6
0.746,-1.0388874263078662e-6
0.747,-9.665160510818893e-7
0.748,-8.674277378606376e-7
0.749,-7.6889693945148e-7
0.75,-6.972126834758896e-7
0.751,-6.159764938118428e-7
0.752,-5.252586623427646e-7
0.753,-4.2512724529597534e-7
0.754,-3.156470764764663e-7
0.755,-1.9688122487870885e-7
0.756,-6.888984760422545e-8
0.757,6.826912879454028e-8
0.758,2.1454100740392335e-7
0.759,3.4508885826678437e-7
0.76,4.259380197435547e-7
0.761,4.934433069925248e-7
0.762,5.45604963986257e-7
0.763,5.804249434415709e-7
0.764,5.959090446649995e-7
0.765,5.900641563139075e-7
0.766,5.609006026308094e-7
0.767,5.064311382474429e-7
0.768,4.246704518040545e-7
0.769,3.336292840883104e-7
0.77,2.7262002377792527e-7
0.771,2.0591451488360946e-7
0.772,1.3564039569313735e-7
0.773,6.416968767464226e-8
0.774,-5.879752573711983e-9
0.775,-7.164600246412078e-8
0.776,-1.3002172771781062e-7
0.777,-1.7765525450741393e-7
0.778,-2.1094986069059019e-7
0.779,-2.3790125369682613e-7
0.78,-2.880140159700062e-7
0.781,-3.3109641273121326e-7
0.782,-3.655008594671827e-7
0.783,-3.895084630389789e-7
0.784,-4.0132996848019076e-7
0.785,-3.9910418880850784e-7
0.786,-3.8089977572042244e-7
0.787,-3.4471365717436697e-7
0.788,-2.884723985241422e-7
0.789,-2.229835067701913e-7
0.79,-1.9775427106960564e-7
0.791,-1.725903561178299e-7
0.792,-1.4915971369156011e-7
0.793,-1.2929902082348121e-7
0.794,-1.1501388053059003e-7
0.795,-1.0847923670453952e-7
0.796,-1.1203808236714963e-7
0.797,-1.2820279771119658e-7
0.798,-1.5965465038902948e-7
0.799,-2.0057871163992047e-7
0.8,-2.0280936730010524e-7
0.801,-2.055526160393839e-7
0.802,-2.085670248730409e-7
0.803,-2.115646658973347e-7
0.804,-2.1421258311615787e-7
0.805,-2.1613178702306612e-7
0.806,-2.168970213434207e-7
0.807,-2.160379187765571e-7
0.808,-2.1303816599704817e-7
0.809,-2.0824115365414286e-7
0.81,-2.0981731196911824e-7
0.811,-2.11141693129413e-7
0.812,-2.120773083813532e-7
0.813,-2.1247412052005643e-7
0.814,-2.1217020362840344e-7
0.815,-2.1099182467843036e-7
0.816,-2.087523911509237e-7
0.817,-2.0525322286246706e-7
0.818,-2.0028409120076418e-7
0.819,-1.9390827943333022e-7
0.82,-1.918478209628205e-7
0.821,-1.8992796890771046e-7
0.822,-1.8824286462937323e-7
0.823,-1.8689628000778669e-7
0.824,-1.8600084772391057e-7
0.825,-1.8567884008113822e-7
0.826,-1.860611184012484e-7
0.827,-1.8728922601685127e-7
0.828,-1.8951267710676234e-7
0.829,-1.928827182418047e-7
0.83,-1.92969425216738e-7
0.831,-1.9300754339202086e-7
0.832,-1.9297087561209736e-7
0.833,-1.9283228569477728e-7
0.834,-1.9256302341563725e-7
0.835,-1.921329469967148e-7
0.836,-1.9151070729250819e-7
0.837,-1.9066309175919116e-7
0.838,-1.8955631386763372e-7
0.839,-1.881543525428242e-7
0.84,-1.8671380119794634e-7
0.841,-1.8575295590572694e-7
0.842,-1.8467697227020352e-7
0.843,-1.8346988739370573e-7
0.844,-1.8211474273055472e-7
0.845,-1.8059297524075646e-7
0.846,-1.788844569139414e-7
0.847,-1.769685467056803e-7
0.848,-1.748226760023286e-7
0.849,-1.7242308303355713e-7
0.85,-1.697448619442099e-7
0.851,-1.6768792032717528e-7
0.852,-1.6623657217440524e-7
0.853,-1.6487744414206418e-7
0.854,-1.636176191199823e-7
0.855,-1.6246277501075213e-7
0.856,-1.6141765912802697e-7
0.857,-1.6048514162037009e-7
0.858,-1.596677341453301e-7
0.859,-1.5896592364672557e-7
0.86,-1.583795145032596e-7
0.861,-1.5790696339390564e-7
0.862,-1.5774865158579843e-7
0.863,-1.577757414716885e-7
0.864,-1.5797146157847664e-7
0.865,-1.5833490429884023e-7
0.866,-1.5886417858990143e-7
0.867,-1.5955630006114774e-7
0.868,-1.6040708483711086e-7
0.869,-1.6141116188084226e-7
0.87,-1.6256227275412982e-7
0.871,-1.6385291035092564e-7
0.872,-1.6515322720511705e-7
0.873,-1.6602534380627532e-7
0.874,-1.668353470929418e-7
0.875,-1.6755648779565036e-7
0.876,-1.681614031356915e-7
0.877,-1.686218958907304e-7
0.878,-1.689083605205255e-7
0.879,-1.689902165979973e-7
0.88,-1.6883593578764788e-7
0.881,-1.6841295702452186e-7
0.882,-1.6768752530982312e-7
0.883,-1.6699402693998167e-7
0.884,-1.6646410716525395e-7
0.885,-1.6580502060214997e-7
0.886,-1.650183216739265e-7
0.887,-1.6410608139061367e-7
0.888,-1.6307215200406233e-7
0.889,-1.6192070095844002e-7
0.89,-1.606586561564427e-7
0.891,-1.5929238772471876e-7
0.892,-1.5783065354657566e-7
0.893,-1.5628264382616663e-7
0.894,-1.5494380323222146e-7
0.895,-1.5371304018518828e-7
0.896,-1.5256702412536072e-7
0.897,-1.5153837717996055e-7
0.898,-1.5066220759862858e-7
0.899,-1.4997594632859546e-7
0.9,-1.4951883497982266e-7
0.901,-1.493325507695431e-7
0.902,-1.4946104454072184e-7
0.903,-1.499511698144218e-7
0.904,-1.5069600223238666e-7
0.905,-1.5050795643123394e-7
0.906,-1.5032322064900683e-7
0.907,-1.5012460163887908e-7
0.908,-1.4989287155930953e-7
0.909,-1.4960680461140186e-7
0.91,-1.4924340641098155e-7
0.911,-1.4877795495582546e-7
0.912,-1.4818436122610024e-7
0.913,-1.474340928231399e-7
0.914,-1.4649703528046842e-7
0.915,-1.4564971662078818e-7
0.916,-1.4515227630962357e-7
0.917,-1.446529301896149e-7
0.918,-1.441541827018611e-7
0.919,-1.4365967926366352e-7
0.92,-1.4317234464655826e-7
0.921,-1.4269671144706564e-7
0.922,-1.4223685351755222e-7
0.923,-1.4179840046590897e-7
0.924,-1.4138615267444976e-7
0.925,-1.4100673872974312e-7
0.926,-1.4057514730048126e-7
0.927,-1.4011802973445953e-7
0.928,-1.3966541057008897e-7
0.929,-1.3921897112911807e-7
0.93,-1.3878025006963668e-7
0.931,-1.383506725849415e-7
0.932,-1.3793257636063316e-7
0.933,-1.3752727656690666e-7
0.934,-1.3713743896026642e-7
0.935,-1.36765378799808e-7
0.936,-1.3641338181269447e-7
0.937,-1.360669059646824e-7
0.938,-1.3571981205551253e-7
0.939,-1.3536667919922252e-7
0.94,-1.350011981093857e-7
0.941,-1.346162350479574e-7
0.942,-1.342043357555056e-7
0.943,-1.337573274362569e-7
0.944,-1.3326620218467866e-7
0.945,-1.3272132282082794e-7
0.946,-1.3222433792314803e-7
0.947,-1.3187881153786662e-7
0.948,-1.315388069578205e-7
0.949,-1.3120017139378604e-7
0.95,-1.3085759908992856e-7
0.951,-1.3050585023766104e-7
0.952,-1.3013920996396422e-7
0.953,-1.297505589636927e-7
0.954,-1.2933257553804367e-7
0.955,-1.2887756983825938e-7
0.956,-1.285163239161946e-7
0.957,-1.28189584391869e-7
0.958,-1.2785790237668238e-7
0.959,-1.275157182067943e-7
0.96,-1.2715737762736268e-7
0.961,-1.2677627891921617e-7
0.962,-1.2636583068825757e-7
0.963,-1.2591772313719218e-7
0.964,-1.2542453020625288e-7
0.965,-1.2490937084663756e-7
0.966,-1.2456467235466562e-7
0.967,-1.2422367445807936e-7
0.968,-1.238826224936318e-7
0.969,-1.2353781597695956e-7
0.97,-1.2318493114449325e-7
0.971,-1.2281870720443067e-7
0.972,-1.2243351954488446e-7
0.973,-1.220235366083955e-7
0.974,-1.2158157225439226e-7
0.975,-1.2117854852888854e-7
0.976,-1.2083658962325217e-7
0.977,-1.204900592632896e-7
0.978,-1.2013405303878955e-7
0.979,-1.1976413527570173e-7
0.98,-1.1937456778632338e-7
0.981,-1.1895935558836612e-7
0.982,-1.1851281600527841e-7
0.983,-1.180268720535338e-7
0.984,-1.1750777551000624e-7
0.985,-1.1715672609824423e-7
0.986,-1.1681252920503482e-7
0.987,-1.1647334596798231e-7
0.988,-1.1613558126288837e-7
0.989,-1.1579641023828913e-7
0.99,-1.1545171429983014e-7
0.991,-1.1509680419852231e-7
0.992,-1.1472698091541389e-7
0.993,-1.1433703983598775e-7
0.994,-1.1399047350479918e-7
0.995,-1.1368396823918658e-7
0.996,-1.1337651584231168e-7
0.997,-1.1306439140490454e-7
0.998,-1.1274324129839641e-7
0.999,-1.1240845709803438e-7
1,-1.1205480099363285e-7
1.001,-1.116760540709194e-7
1.002,-1.1126698162833293e-7
1.003,-1.1084562301366674e-7
1.004,-1.105388723887657e-7
1.005,-1.1023408574839522e-7
1.006,-1.0992865218106829e-7
1.007,-1.096187618454536e-7
1.008,-1.0930112881446519e-7
1.009,-1.0897168623014153e-7
1.01,-1.0862517629828261e-7
1.011,-1.0825716212359282e-7
1.012,-1.0786176118937618e-7
1.013,-1.0753030499355276e-7
1.014,-1.0723462429140795e-7
1.015,-1.0693876617562381e-7
1.016,-1.0663980098968295e-7
1.017,-1.063336451112562e-7
1.018,-1.060166441302357e-7
1.019,-1.0568487407436322e-7
1.02,-1.0533316341376775e-7
1.021,-1.0495619029438075e-7
1.022,-1.0457377475070473e-7
1.023,-1.0424821228482983e-7
1.024,-1.0392277782766968e-7
1.025,-1.0359776669854881e-7
1.026,-1.0327271349197531e-7
1.027,-1.0294792374132555e-7
1.028,-1.0262361271884402e-7
1.029,-1.0230031510793935e-7
1.03,-1.019775229815778e-7
1.031,-1.016565090994348e-7
1.032,-1.0133642380782959e-7
1.033,-1.0101778469273626e-7
1.034,-1.007011690701276e-7
1.035,-1.0038736597550724e-7
1.036,-1.0007685324886495e-7
1.037,-9.976993398108647e-8
1.038,-9.946736978516668e-8
1.039,-9.91700085384295e-8
1.04,-9.887874696801191e-8
1.041,-9.858764915549045e-8
1.042,-9.828812352896676e-8
1.043,-9.798918432224468e-8
1.044,-9.769074627019592e-8
1.045,-9.73923512948005e-8
1.046,-9.709422532644396e-8
1.047,-9.679589807465305e-8
1.048,-9.649737742201125e-8
1.049,-9.619871255139856e-8
1.05,-9.589943494869857e-8
1.051,-9.560238733996584e-8
1.052,-9.53059067221318e-8
1.053,-9.501010256318665e-8
1.054,-9.471517969927845e-8
1.055,-9.442097992362619e-8
1.056,-9.412807133735157e-8
1.057,-9.383639865134796e-8
1.058,-9.354648267123622e-8
1.059,-9.325874450460958e-8
1.06,-9.298258074608157e-8
1.061,-9.271960310641703e-8
1.062,-9.245797571999503e-8
1.063,-9.219528795956222e-8
1.064,-9.19293268175636e-8
1.065,-9.165756920115342e-8
1.066,-9.137665901715053e-8
1.067,-9.108386855860573e-8
1.068,-9.077501050835934e-8
1.069,-9.044685123082985e-8
1.07,-9.019726399106531e-8
1.071,-8.995017619639611e-8
1.072,-8.97043002101583e-8
1.073,-8.945711649221977e-8
1.074,-8.920609506635202e-8
1.075,-8.894902114864323e-8
1.076,-8.868269407713569e-8
1.077,-8.840401222176553e-8
1.078,-8.810936036329764e-8
1.079,-8.783817984081566e-8
1.08,-8.759779457356842e-8
1.081,-8.735564649420269e-8
1.082,-8.711025678564965e-8
1.083,-8.685842600719695e-8
1.084,-8.6597846227221e-8
1.085,-8.632563153199158e-8
1.086,-8.603801693318758e-8
1.087,-8.57318059876988e-8
1.088,-8.540333817919077e-8
1.089,-8.506758586435126e-8
1.09,-8.48227587058048e-8
1.091,-8.458118971876871e-8
1.092,-8.434095977172262e-8
1.093,-8.410092100508137e-8
1.094,-8.38589063745232e-8
1.095,-8.361252101796168e-8
1.096,-8.335953916027705e-8
1.097,-8.309762367098017e-8
1.098,-8.282314400975821e-8
1.099,-8.253324124130046e-8
1.1,-8.229156356343026e-8
1.101,-8.206873536309445e-8
1.102,-8.184575972514097e-8
1.103,-8.162062248295854e-8
1.104,-8.139114804350811e-8
1.105,-8.115522009966014e-8
1.106,-8.090947023475792e-8
1.107,-8.065172230065087e-8
1.108,-8.037804211102895e-8
1.109,-8.008573504358907e-8
1.11,-7.980988159239644e-8
1.111,-7.959054326711623e-8
1.112,-7.93721639524847e-8
1.113,-7.915318434026375e-8
1.114,-7.893189357677244e-8
1.115,-7.870605966964206e-8
1.116,-7.847324257070909e-8
1.117,-7.823126280115389e-8
1.118,-7.797737078263367e-8
1.119,-7.770824095310047e-8
1.12,-7.742112406727841e-8
1.121,-7.720784234166445e-8
1.122,-7.699598658650331e-8
1.123,-7.678382940579098e-8
1.124,-7.65698930926817e-8
1.125,-7.635212606604824e-8
1.126,-7.612853536453912e-8
1.127,-7.589665096396914e-8
1.128,-7.565390280905859e-8
1.129,-7.539772473030837e-8
1.13,-7.512513178209446e-8
1.131,-7.488637465691284e-8
1.132,-7.467925033921574e-8
1.133,-7.447278549399527e-8
1.134,-7.426535575394411e-8
1.135,-7.405497326473665e-8
1.136,-7.384047862046828e-8
1.137,-7.361930909333125e-8
1.138,-7.338932173084345e-8
1.139,-7.314795391621942e-8
1.14,-7.289280012923172e-8
1.141,-7.26376141457763e-8
1.142,-7.243610888885144e-8
1.143,-7.223563236458119e-8
1.144,-7.203452478954375e-8
1.145,-7.183200678717583e-8
1.146,-7.16257958499611e-8
1.147,-7.141422808665254e-8
1.148,-7.119513023567947e-8
1.149,-7.096615772805848e-8
1.15,-7.072523700024647e-8
1.151,-7.0469562074571e-8
1.152,-7.024484827145017e-8
1.153,-7.002866952987574e-8
1.154,-6.981194689004155e-8
1.155,-6.959501652747946e-8
1.156,-6.937817675911617e-8
1.157,-6.916066408457766e-8
1.158,-6.894313731020674e-8
1.159,-6.872523394818586e-8
1.16,-6.850714107109468e-8
1.161,-6.828859799856701e-8
1.162,-6.807951247189692e-8
1.163,-6.788415718439467e-8
1.164,-6.769010452156721e-8
1.165,-6.749647585291285e-8
1.166,-6.730202817273323e-8
1.167,-6.710510780383316e-8
1.168,-6.690457254876492e-8
1.169,-6.669840202366828e-8
1.17,-6.648473016568346e-8
1.171,-6.626143622678882e-8
1.172,-6.602992275173136e-8
1.173,-6.58484848869989e-8
1.174,-6.566872523539047e-8
1.175,-6.548982578458151e-8
1.176,-6.53106126957681e-8
1.177,-6.512964401128585e-8
1.178,-6.494553650426838e-8
1.179,-6.47567492961798e-8
1.18,-6.456121837139506e-8
1.181,-6.43568276448292e-8
1.182,-6.414224840156635e-8
1.183,-6.395218576926709e-8
1.184,-6.377914063548928e-8
1.185,-6.360562176954687e-8
1.186,-6.343021830002016e-8
1.187,-6.325182888566871e-8
1.188,-6.306863231664295e-8
1.189,-6.287921250347495e-8
1.19,-6.268205754444978e-8
1.191,-6.247476946885655e-8
1.192,-6.225536397508336e-8
1.193,-6.203946867344712e-8
1.194,-6.186504164507056e-8
1.195,-6.169155286617212e-8
1.196,-6.15176686258323e-8
1.197,-6.134292751536208e-8
1.198,-6.116594586380586e-8
1.199,-6.098548421817895e-8
1.2,-6.079984626872204e-8
1.201,-6.060794699447314e-8
1.202,-6.040772559945395e-8
1.203,-6.01973210168083e-8
1.204,-6.002325558807087e-8
1.205,-5.985516093875987e-8
1.206,-5.968703420400345e-8
1.207,-5.9517990647073304e-8
1.208,-5.934710456401149e-8
1.209,-5.917260181842465e-8
1.21,-5.8993710361221474e-8
1.211,-5.8808459213466335e-8
1.212,-5.8615701403752496e-8
1.213,-5.8413260561884783e-8
1.214,-5.822578741376816e-8
1.215,-5.806161340604632e-8
1.216,-5.7898349892226975e-8
1.217,-5.7734559577582445e-8
1.218,-5.7569682687663715e-8
1.219,-5.740238762097505e-8
1.22,-5.723164797633018e-8
1.221,-5.705576633374676e-8
1.222,-5.6873926457257085e-8
1.223,-5.6684326454892187e-8
1.224,-5.6489888655697484e-8
1.225,-5.6330691999839644e-8
1.226,-5.6172290263667435e-8
1.227,-5.6013761295936604e-8
1.228,-5.5854399771959606e-8
1.229,-5.56931262218896e-8
1.23,-5.552850446122193e-8
1.231,-5.535992753102903e-8
1.232,-5.518575052487762e-8
1.233,-5.500448274631253e-8
1.234,-5.4814582872708684e-8
1.235,-5.463826269203054e-8
1.236,-5.446873552195086e-8
1.237,-5.42986497986675e-8
1.238,-5.4127511806001394e-8
1.239,-5.3955578338538146e-8
1.24,-5.378249334775376e-8
1.241,-5.360833987833047e-8
1.242,-5.343280673475448e-8
1.243,-5.3255748144742654e-8
1.244,-5.307719763703034e-8
1.245,-5.290022098147773e-8
1.246,-5.272925163168907e-8
1.247,-5.256006430087723e-8
1.248,-5.2392823857161375e-8
1.249,-5.2228422808831e-8
1.25,-5.20671404879991e-8
1.251,-5.190939988963805e-8
1.252,-5.175626516251697e-8
1.253,-5.160785554458869e-8
1.254,-5.1465236960979155e-8
1.255,-5.132884484115863e-8
1.256,-5.1179343096841023e-8
1.257,-5.102961420089258e-8
1.258,-5.088004861875106e-8
1.259,-5.0730889378236554e-8
1.26,-5.058108598632316e-8
1.261,-5.043097184298517e-8
1.262,-5.027959637526891e-8
1.263,-5.012723014452547e-8
1.264,-4.997327385236616e-8
1.265,-4.981704970763445e-8
1.266,-4.967289068957825e-8
1.267,-4.954062571282947e-8
1.268,-4.941098952215839e-8
1.269,-4.928338082077488e-8
1.27,-4.915694873375287e-8
1.271,-4.9031197657534165e-8
1.272,-4.8905424265832664e-8
1.273,-4.877872139541495e-8
1.274,-4.865034097800702e-8
1.275,-4.8519264828073005e-8
1.276,-4.8384432016490564e-8
1.277,-4.8244723438450876e-8
1.278,-4.809866505084415e-8
1.279,-4.7945392100956497e-8
1.28,-4.7783117906874395e-8
1.281,-4.7610723141744415e-8
1.282,-4.742652304212669e-8
1.283,-4.72289838349127e-8
1.284,-4.701610745172502e-8
1.285,-4.6893071425913035e-8
1.286,-4.6788337759728904e-8
1.287,-4.668553710285295e-8
1.288,-4.65841704100356e-8
1.289,-4.648289464448396e-8
1.29,-4.638125561395867e-8
1.291,-4.627838112725158e-8
1.292,-4.617288296149269e-8
1.293,-4.606378467553185e-8
1.294,-4.5950006355433004e-8
1.295,-4.5830265804625014e-8
1.296,-4.5702958639814995e-8
1.297,-4.556716537429395e-8
1.298,-4.542128850815175e-8
1.299,-4.526336472299164e-8
1.3,-4.5092312772609944e-8
1.301,-4.490607230511756e-8
1.302,-4.470278036627917e-8
1.303,-4.450432911085045e-8
1.304,-4.4417851063904834e-8
1.305,-4.4332545523495526e-8
1.306,-4.4248115838030344e-8
1.307,-4.416353371894388e-8
1.308,-4.407772746795047e-8
1.309,-4.398998332266757e-8
1.31,-4.389880448041339e-8
1.311,-4.3803275673326425e-8
1.312,-4.370226502903307e-8
1.313,-4.359459326863657e-8
1.314,-4.347835302898062e-8
1.315,-4.335236181152169e-8
1.316,-4.32153357543541e-8
1.317,-4.3065680133125284e-8
1.318,-4.290185007249647e-8
1.319,-4.272203857347279e-8
1.32,-4.252428897899563e-8
1.321,-4.230710559660622e-8
1.322,-4.2141838463294334e-8
1.323,-4.205666970236166e-8
1.324,-4.197235969893853e-8
1.325,-4.188866342680342e-8
1.326,-4.1804875228201865e-8
1.327,-4.171935108487901e-8
1.328,-4.1632058467300226e-8
1.329,-4.154192623229136e-8
1.33,-4.1447776544245585e-8
1.331,-4.1348227286519545e-8
1.332,-4.124235819524813e-8
1.333,-4.112926099697489e-8
1.334,-4.100739081636107e-8
1.335,-4.087526117579898e-8
1.336,-4.0731955808226417e-8
1.337,-4.05758305843662e-8
1.338,-4.040487877610133e-8
1.339,-4.0218653185597475e-8
1.34,-4.0014523139397795e-8
1.341,-3.989872865428623e-8
1.342,-3.9815148622501795e-8
1.343,-3.9732357848265565e-8
1.344,-3.96495746235459e-8
1.345,-3.956634542223725e-8
1.346,-3.9481159563869994e-8
1.347,-3.93941368415085e-8
1.348,-3.9304023702335655e-8
1.349,-3.920984237293368e-8
1.35,-3.9110767735550667e-8
1.351,-3.900545009205558e-8
1.352,-3.8893221643299114e-8
1.353,-3.8772318355917434e-8
1.354,-3.864228059757835e-8
1.355,-3.8501498766940756e-8
1.356,-3.834862960516716e-8
1.357,-3.8182115358331714e-8
1.358,-3.800124082076195e-8
1.359,-3.7812155850858176e-8
1.36,-3.772819801017846e-8
1.361,-3.764617095836087e-8
1.362,-3.756406330435169e-8
1.363,-3.748251464763541e-8
1.364,-3.7400297525636006e-8
1.365,-3.73167549083675e-8
1.366,-3.7231227767442476e-8
1.367,-3.714315899294718e-8
1.368,-3.7051425039180685e-8
1.369,-3.695511208157143e-8
1.37,-3.6853401330638746e-8
1.371,-3.674542803366876e-8
1.372,-3.66299628407063e-8
1.373,-3.650624391671187e-8
1.374,-3.637257284250239e-8
1.375,-3.622855426765881e-8
1.376,-3.607243781456049e-8
1.377,-3.590340735826203e-8
1.378,-3.575903861907648e-8
1.379,-3.5679050158776704e-8
1.38,-3.5600172365590765e-8
1.381,-3.5521405816751894e-8
1.382,-3.5442679457986515e-8
1.383,-3.5363351247319486e-8
1.384,-3.5282572641293086e-8
1.385,-3.519986191413693e-8
1.386,-3.511405610723273e-8
1.387,-3.502513890030201e-8
1.388,-3.493169364876536e-8
1.389,-3.483302124518417e-8
1.39,-3.472838150386792e-8
1.391,-3.461671793658638e-8
1.392,-3.449728591675694e-8
1.393,-3.43687155401895e-8
1.394,-3.4230108525434844e-8
1.395,-3.4080617883347486e-8
1.396,-3.391866232327345e-8
1.397,-3.381101743027415e-8
1.398,-3.37355655632976e-8
1.399,-3.366119072367724e-8
1.4,-3.358736622161018e-8
1.401,-3.351356447911513e-8
1.402,-3.343900245589282e-8
1.403,-3.3364190632489965e-8
1.404,-3.328730679985625e-8
1.405,-3.320813612983642e-8
1.406,-3.312630891816326e-8
1.407,-3.304072415666326e-8
1.408,-3.295070405417988e-8
1.409,-3.2855722587044056e-8
1.41,-3.2754574608162557e-8
1.411,-3.264668491098632e-8
1.412,-3.2531216720421696e-8
1.413,-3.240707147078581e-8
1.414,-3.227315137355191e-8
1.415,-3.212887733639036e-8
1.416,-3.197278974909068e-8
1.417,-3.180394847479562e-8
1.418,-3.1621513518764743e-8
1.419,-3.142422999591332e-8
1.42,-3.121043457010586e-8
1.421,-3.097959533349126e-8
1.422,-3.0729993771849706e-8
1.423,-3.055786346184419e-8
1.424,-3.04528023908901e-8
1.425,-3.034606121943284e-8
1.426,-3.023782779720818e-8
1.427,-3.012714866468258e-8
1.428,-3.001363746424346e-8
1.429,-2.989665448538403e-8
1.43,-2.9775242382790168e-8
1.431,-2.96492810303306e-8
1.432,-2.9517807975665278e-8
1.433,-2.9379770838389163e-8
1.434,-2.9234731857563645e-8
1.435,-2.908194240980322e-8
1.436,-2.8920188355208154e-8
1.437,-2.874914228900849e-8
1.438,-2.8567372023502458e-8
1.439,-2.837429602386976e-8
1.44,-2.8168902099778848e-8
1.441,-2.7949872416499488e-8
1.442,-2.7716458128601573e-8
1.443,-2.746770733086379e-8
1.444,-2.7202248564783815e-8
1.445,-2.6919226292498877e-8
1.446,-2.6617122506067403e-8
1.447,-2.629518047747581e-8
1.448,-2.5952188176248114e-8
1.449,-2.570426826942196e-8
1.45,-2.557883616027823e-8
1.451,-2.5457235985903992e-8
1.452,-2.5339266573887187e-8
1.453,-2.5224679234270297e-8
1.454,-2.5113274237931194e-8
1.455,-2.5004332049327616e-8
1.456,-2.4897656047961902e-8
1.457,-2.4792783714921995e-8
1.458,-2.468951876277714e-8
1.459,-2.4587243685481042e-8
1.46,-2.448555325162971e-8
1.461,-2.43836789648455e-8
1.462,-2.428141865351563e-8
1.463,-2.417800104570489e-8
1.464,-2.407276122884383e-8
1.465,-2.3965292528238535e-8
1.466,-2.3855184272392194e-8
1.467,-2.374120500192589e-8
1.468,-2.362309736714252e-8
1.469,-2.349962779923942e-8
1.47,-2.3370434476532864e-8
1.471,-2.3234858370635436e-8
1.472,-2.3091866419022722e-8
1.473,-2.294052658946555e-8
1.474,-2.278033583991146e-8
1.475,-2.2666078458577488e-8
1.476,-2.2639537800017706e-8
1.477,-2.261811049564244e-8
1.478,-2.260181009017259e-8
1.479,-2.2590342929618146e-8
1.48,-2.2582733016918155e-8
1.481,-2.2579567215963436e-8
1.482,-2.257956155382601e-8
1.483,-2.258262643550779e-8
1.484,-2.2588257375666387e-8
1.485,-2.2596573612254645e-8
1.486,-2.2606025162907883e-8
1.487,-2.2616686856657964e-8
1.488,-2.26278424886317e-8
1.489,-2.2639139340974168e-8
1.49,-2.2649974340538392e-8
1.491,-2.2659320086937385e-8
1.492,-2.2666773125123996e-8
1.493,-2.2671778787675123e-8
1.494,-2.2673728339306365e-8
1.495,-2.2671651223049594e-8
1.496,-2.2664724763643562e-8
1.497,-2.26527610003302e-8
1.498,-2.26343166431775e-8
1.499,-2.260899423234264e-8
1.5,-2.2575659786028268e-8
1.501,-2.2559113133091557e-8
1.502,-2.25964499334097e-8
1.503,-2.2633448559794545e-8
1.504,-2.2669506605232925e-8
1.505,-2.2703913971078293e-8
1.506,-2.273632360161315e-8
1.507,-2.2765930585144645e-8
1.508,-2.279243538350073e-8
1.509,-2.2814666378323523e-8
1.51,-2.283259015189998e-8
1.511,-2.2845082270350758e-8
1.512,-2.2851748826546725e-8
1.513,-2.2851513348243202e-8
1.514,-2.2844035663105444e-8
1.515,-2.282839783873669e-8
1.516,-2.2803946064797742e-8
1.517,-2.2769553686963206e-8
1.518,-2.2724721659983516e-8
1.519,-2.2668691923577455e-8
1.52,-2.2600443183584673e-8
1.521,-2.2519158870970557e-8
1.522,-2.2423930823300964e-8
1.523,-2.2313789815875396e-8
1.524,-2.2187815362784136e-8
1.525,-2.2045457015451575e-8
1.526,-2.188512537859566e-8
1.527,-2.1734588129262988e-8
1.528,-2.1682406314837976e-8
1.529,-2.1629539825873678e-8
1.53,-2.157664003021864e-8
1.531,-2.1523656412725245e-8
1.532,-2.1470737521234184e-8
1.533,-2.1418301909825743e-8
1.534,-2.1366446167903064e-8
1.535,-2.13153982242531e-8
1.536,-2.1265672889292375e-8
1.537,-2.1217137713414047e-8
1.538,-2.1170680875037817e-8
1.539,-2.1126334348586795e-8
1.54,-2.1084363477363866e-8
1.541,-2.1045277187603517e-8
1.542,-2.1009090911405792e-8
1.543,-2.097647011645165e-8
1.544,-2.0948062617875962e-8
1.545,-2.092376127915685e-8
1.546,-2.0904119879538996e-8
1.547,-2.08896568931749e-8
1.548,-2.0880929207933718e-8
1.549,-2.087800099470627e-8
1.55,-2.088159201107942e-8
1.551,-2.0892491625623677e-8
1.552,-2.091060236075748e-8
1.553,-2.0928757948901477e-8
1.554,-2.0889226570730557e-8
1.555,-2.084806682844942e-8
1.556,-2.0805775990950792e-8
1.557,-2.0762384145278645e-8
1.558,-2.07174775113117e-8
1.559,-2.0671216072187804e-8
1.56,-2.0623321161927777e-8
1.561,-2.0574336012657568e-8
1.562,-2.0523385435566865e-8
1.563,-2.0470787509552224e-8
1.564,-2.0416778601095587e-8
1.565,-2.0360980124145556e-8
1.566,-2.030329282476373e-8
1.567,-2.0243568710220927e-8
1.568,-2.018236067158341e-8
1.569,-2.011913091681805e-8
1.57,-2.0053578575485176e-8
1.571,-1.9986281629691405e-8
1.572,-1.9916917226581177e-8
1.573,-1.98454136457471e-8
1.574,-1.9771681625257997e-8
1.575,-1.9695621022997045e-8
1.576,-1.9617801605420482e-8
1.577,-1.953736594728639e-8
1.578,-1.945465011310432e-8
1.579,-1.937005500440847e-8
1.58,-1.9298750597585013e-8
1.581,-1.922727188574669e-8
1.582,-1.9155802277737166e-8
1.583,-1.908436952913206e-8
1.584,-1.9013058127903548e-8
1.585,-1.8942257429266363e-8
1.586,-1.887189782223686e-8
1.587,-1.8802264856176976e-8
1.588,-1.8733185336294866e-8
1.589,-1.8665004208884284e-8
1.59,-1.859811338267292e-8
1.591,-1.8532288259542895e-8
1.592,-1.8468132467752696e-8
1.593,-1.8405469370819105e-8
1.594,-1.8344755159382942e-8
1.595,-1.8285967406939108e-8
1.596,-1.822966011477689e-8
1.597,-1.8175507765505472e-8
1.598,-1.8123857303820046e-8
1.599,-1.8075577257192776e-8
1.6,-1.803002769307227e-8
1.601,-1.79881812778504e-8
1.602,-1.7949607244993615e-8
1.603,-1.7914970840138267e-8
1.604,-1.7884515424171354e-8
1.605,-1.7858384548929962e-8
1.606,-1.7805160901218642e-8
1.607,-1.7749805847344646e-8
1.608,-1.7694414045088536e-8
1.609,-1.763967072410111e-8
1.61,-1.7584587563845844e-8
1.611,-1.7530130458354165e-8
1.612,-1.747563660448037e-8
1.613,-1.7421406317552623e-8
1.614,-1.7367263072110006e-8
1.615,-1.731331322751828e-8
1.616,-1.7259494722310365e-8
1.617,-1.7205878388715234e-8
1.618,-1.7152780862339512e-8
1.619,-1.7099661575592506e-8
1.62,-1.704674823521657e-8
1.621,-1.6994190721320024e-8
1.622,-1.6941607672293912e-8
1.623,-1.688947504074889e-8
1.624,-1.6837630290034156e-8
1.625,-1.6786052547956842e-8
1.626,-1.6734529983963853e-8
1.627,-1.6683732950717456e-8
1.628,-1.663310955635211e-8
1.629,-1.6582819784005665e-8
1.63,-1.6532998192708703e-8
1.631,-1.6483615361551074e-8
1.632,-1.6433004068616697e-8
1.633,-1.6382147194349272e-8
1.634,-1.6331542673775346e-8
1.635,-1.6281316184141303e-8
1.636,-1.6231010868672513e-8
1.637,-1.6181063045017652e-8
1.638,-1.6131384228401657e-8
1.639,-1.6082263964989352e-8
1.64,-1.6033399719006525e-8
1.641,-1.5984675694191708e-8
1.642,-1.5936573061203774e-8
1.643,-1.588866382906673e-8
1.644,-1.58416388895688e-8
1.645,-1.579445396693302e-8
1.646,-1.574853281116617e-8
1.647,-1.5702829925245965e-8
1.648,-1.5657681040615046e-8
1.649,-1.5613137005487943e-8
1.65,-1.556974671412803e-8
1.651,-1.552688677630698e-8
1.652,-1.5484799331666466e-8
1.653,-1.5443486711674836e-8
1.654,-1.540334870764326e-8
1.655,-1.5364239436266303e-8
1.656,-1.5326088731448806e-8
1.657,-1.5288914245736862e-8
1.658,-1.5246795603829355e-8
1.659,-1.5202117897850087e-8
1.66,-1.5157633481699406e-8
1.661,-1.511339275950263e-8
1.662,-1.506887370439358e-8
1.663,-1.5024774535632446e-8
1.664,-1.498056123594438e-8
1.665,-1.493638890348592e-8
1.666,-1.4892427846469047e-8
1.667,-1.48485039819235e-8
1.668,-1.4804658832190398e-8
1.669,-1.4760700328686482e-8
1.67,-1.4717169039002442e-8
1.671,-1.4673592452218998e-8
1.672,-1.4630338496246509e-8
1.673,-1.4587008489996833e-8
1.674,-1.4544213500222725e-8
1.675,-1.4501438827529967e-8
1.676,-1.4458953923046636e-8
1.677,-1.4416947968776128e-8
1.678,-1.4374950674245213e-8
1.679,-1.4333490394591308e-8
1.68,-1.4292234395973935e-8
1.681,-1.4251530733311313e-8
1.682,-1.4211441690115123e-8
1.683,-1.4171676609997519e-8
1.684,-1.4132220949036878e-8
1.685,-1.4093542777260382e-8
1.686,-1.405581340208073e-8
1.687,-1.401813143342423e-8
1.688,-1.3981535929019628e-8
1.689,-1.39457687620137e-8
1.69,-1.3910556817542385e-8
1.691,-1.387645798267556e-8
1.692,-1.3843529989010506e-8
1.693,-1.3811381260886435e-8
1.694,-1.377302505378708e-8
1.695,-1.3732418091549903e-8
1.696,-1.369216706681442e-8
1.697,-1.3651899721800476e-8
1.698,-1.3611859861484277e-8
1.699,-1.3571975987503038e-8
1.7,-1.353212553123484e-8
1.701,-1.3492856942853848e-8
1.702,-1.3453617664360706e-8
1.703,-1.3415057953380938e-8
1.704,-1.3376365237682819e-8
1.705,-1.3338329774015278e-8
1.706,-1.330065602100916e-8
1.707,-1.3263299125654271e-8
1.708,-1.3226524098186587e-8
1.709,-1.3190177949873316e-8
1.71,-1.3154882627652853e-8
1.711,-1.3119752506618454e-8
1.712,-1.3085508454580008e-8
1.713,-1.3052035341409862e-8
1.714,-1.3019115008283677e-8
1.715,-1.2987243946938065e-8
1.716,-1.2956408945719033e-8
1.717,-1.2926531178791834e-8
1.718,-1.2897430123892661e-8
1.719,-1.2869858734276818e-8
1.72,-1.2843051733213429e-8
1.721,-1.281760364513218e-8
1.722,-1.279378303298273e-8
1.723,-1.2771081747686708e-8
1.724,-1.2750235867109438e-8
1.725,-1.2730777543268346e-8
1.726,-1.2712868424635815e-8
1.727,-1.2696971918302324e-8
1.728,-1.2682768835148295e-8
1.729,-1.26705645975278e-8
1.73,-1.264457538674435e-8
1.731,-1.2613949329498553e-8
1.732,-1.2583654340758699e-8
1.733,-1.255315673631685e-8
1.734,-1.2522658243696583e-8
1.735,-1.2492516021644917e-8
1.736,-1.2462205156715811e-8
1.737,-1.2432202156631433e-8
1.738,-1.2401840332465497e-8
1.739,-1.2372015301131967e-8
1.74,-1.2342072919224734e-8
1.741,-1.2312400321512484e-8
1.742,-1.2282925010431711e-8
1.743,-1.2253571157749832e-8
1.744,-1.2224434242646964e-8
1.745,-1.2195346066334878e-8
1.746,-1.2166879281849674e-8
1.747,-1.213845979286532e-8
1.748,-1.2110301872425566e-8
1.749,-1.208262934149218e-8
1.75,-1.2055351716888651e-8
1.751,-1.2028436136013454e-8
1.752,-1.2001960980612125e-8
1.753,-1.1975961333732243e-8
1.754,-1.1950573530761233e-8
1.755,-1.1925470833062946e-8
1.756,-1.1901225560606576e-8
1.757,-1.1877675398785925e-8
1.758,-1.1854821568846319e-8
1.759,-1.1832525292909679e-8
1.76,-1.1811360778324342e-8
1.761,-1.179052599997732e-8
1.762,-1.1771070673738393e-8
1.763,-1.1752410045140493e-8
1.764,-1.1734932470197634e-8
1.765,-1.171831309765281e-8
1.766,-1.1690440060441176e-8
1.767,-1.1659238241534808e-8
1.768,-1.1627525831059415e-8
1.769,-1.1595472582115463e-8
1.77,-1.156292972481765e-8
1.771,-1.1529974863755399e-8
1.772,-1.1496668617105854e-8
1.773,-1.1463155202839914e-8
1.774,-1.1428870960727977e-8
1.775,-1.139433336572182e-8
1.776,-1.1359616358674884e-8
1.777,-1.1324406301582712e-8
1.778,-1.1288997736613737e-8
1.779,-1.125292770076669e-8
1.78,-1.121665416103923e-8
1.781,-1.1179673853334293e-8
1.782,-1.1142910816275275e-8
1.783,-1.1105561914526163e-8
1.784,-1.1067888494586953e-8
1.785,-1.1030131807920895e-8
1.786,-1.099182922459363e-8
1.787,-1.0953336349039944e-8
1.788,-1.0914670833805928e-8
1.789,-1.0875618072780924e-8
1.79,-1.0836569974692623e-8
1.791,-1.079737255160751e-8
1.792,-1.0757847390685527e-8
1.793,-1.071832522736571e-8
1.794,-1.0678632089700102e-8
1.795,-1.0638844027965888e-8
1.796,-1.059916221457513e-8
1.797,-1.0559507046536964e-8
1.798,-1.0519890181193148e-8
1.799,-1.0480186940498015e-8
1.8,-1.0440509234932449e-8
1.801,-1.0401269068260888e-8
1.802,-1.0358821578293487e-8
1.803,-1.0315570286856257e-8
1.804,-1.0271999806299448e-8
1.805,-1.0228208280338436e-8
1.806,-1.0184437182481076e-8
1.807,-1.014051609349309e-8
1.808,-1.0096742886211985e-8
1.809,-1.0052627286150084e-8
1.81,-1.0008770701119829e-8
1.811,-9.964890246294544e-9
1.812,-9.92131998778234e-9
1.813,-9.877669349123153e-9
1.814,-9.83442871582696e-9
1.815,-9.790883881422019e-9
1.816,-9.748301832424033e-9
1.817,-9.70565405822299e-9
1.818,-9.663527533732008e-9
1.819,-9.621666685610819e-9
1.82,-9.580599868996842e-9
1.821,-9.539707690464638e-9
1.822,-9.499411479652053e-9
1.823,-9.459911631815032e-9
1.824,-9.421055380265386e-9
1.825,-9.38298994057618e-9
1.826,-9.345817675310286e-9
1.827,-9.309369053411842e-9
1.828,-9.273783740937347e-9
1.829,-9.239628728785476e-9
1.83,-9.206049700338781e-9
1.831,-9.173810044948993e-9
1.832,-9.142886003843387e-9
1.833,-9.113257148918308e-9
1.834,-9.085104335504468e-9
1.835,-9.058658156924082e-9
1.836,-9.033111370015945e-9
1.837,-9.009468282528132e-9
1.838,-8.977335430593314e-9
1.839,-8.943159657270883e-9
1.84,-8.909388338196322e-9
1.841,-8.876220314313343e-9
1.842,-8.843746068798453e-9
1.843,-8.811663843033557e-9
1.844,-8.780558280463424e-9
1.845,-8.749626800863552e-9
1.846,-8.719832855774712e-9
1.847,-8.690714148329448e-9
1.848,-8.662273565107625e-9
1.849,-8.634786996530863e-9
1.85,-8.60813265113336e-9
1.851,-8.582442645455046e-9
1.852,-8.557830333266736e-9
1.853,-8.534400519621954e-9
1.854,-8.511604865368838e-9
1.855,-8.49014591963737e-9
1.856,-8.46980852120538e-9
1.857,-8.450953825622776e-9
1.858,-8.433021281284425e-9
1.859,-8.416496610763602e-9
1.86,-8.401470741326023e-9
1.861,-8.387876837545605e-9
1.862,-8.375771853863512e-9
1.863,-8.365113934871715e-9
1.864,-8.35613778171762e-9
1.865,-8.348718938400168e-9
1.866,-8.343320034853718e-9
1.867,-8.339578694283034e-9
1.868,-8.337824208837219e-9
1.869,-8.337922241530293e-9
1.87,-8.339964163717184e-9
1.871,-8.34420421647053e-9
1.872,-8.350593438954945e-9
1.873,-8.359103409461e-9
1.874,-8.352715741288819e-9
1.875,-8.342113444470556e-9
1.876,-8.331184853105356e-9
1.877,-8.319586464189399e-9
1.878,-8.307854293398975e-9
1.879,-8.295326536789105e-9
1.88,-8.282491581468321e-9
1.881,-8.268637108344024e-9
1.882,-8.254094296944459e-9
1.883,-8.238667303928082e-9
1.884,-8.222325487139415e-9
1.885,-8.20498113895951e-9
1.886,-8.186286537537057e-9
1.887,-8.166310627721884e-9
1.888,-8.14507361557304e-9
1.889,-8.122637340512995e-9
1.89,-8.09819522551436e-9
1.891,-8.072226442834562e-9
1.892,-8.044699684184309e-9
1.893,-8.015111352399629e-9
1.894,-7.983529393129629e-9
1.895,-7.949762070857957e-9
1.896,-7.914138899778322e-9
1.897,-7.875742058516266e-9
1.898,-7.835007642675862e-9
1.899,-7.791687184344198e-9
1.9,-7.746057462121314e-9
1.901,-7.69705132963594e-9
1.902,-7.645198585315427e-9
1.903,-7.590361894571629e-9
1.904,-7.532505286178548e-9
1.905,-7.471128715685893e-9
1.906,-7.406198543336018e-9
1.907,-7.337882856894851e-9
1.908,-7.2656307636975725e-9
1.909,-7.189561723741633e-9
1.91,-7.152796244191961e-9
1.911,-7.126262913104142e-9
1.912,-7.100111276692189e-9
1.913,-7.073877483776414e-9
1.914,-7.048035488566029e-9
1.915,-7.0223786785561515e-9
1.916,-6.996759283062204e-9
1.917,-6.971440091874115e-9
1.918,-6.946112129924131e-9
1.919,-6.920624517903207e-9
1.92,-6.8953499576807076e-9
1.921,-6.870129909408718e-9
1.922,-6.8447163492635354e-9
1.923,-6.819107278843717e-9
1.924,-6.793410278760348e-9
1.925,-6.767638005555909e-9
1.926,-6.7415291127304044e-9
1.927,-6.715088152198234e-9
1.928,-6.688372522489772e-9
1.929,-6.661125317997119e-9
1.93,-6.633509741504895e-9
1.931,-6.605424207606347e-9
1.932,-6.5767682411177475e-9
1.933,-6.547343112117687e-9
1.934,-6.517356543334074e-9
1.935,-6.486553849605059e-9
1.936,-6.4550474965230364e-9
1.937,-6.422678167083973e-9
1.938,-6.3894042279244445e-9
1.939,-6.354969550592671e-9
1.94,-6.31989705013325e-9
1.941,-6.283101150472703e-9
1.942,-6.245362449419645e-9
1.943,-6.206430591682022e-9
1.944,-6.1659444217099235e-9
1.945,-6.124062146284359e-9
1.946,-6.103451299921403e-9
1.947,-6.0885206876193365e-9
1.948,-6.07453864986951e-9
1.949,-6.061104396160033e-9
1.95,-6.048236356193115e-9
1.951,-6.036261601671811e-9
1.952,-6.024729715115029e-9
1.953,-6.013909925606242e-9
1.954,-6.003410657484665e-9
1.955,-5.993763152467579e-9
1.956,-5.984515993873174e-9
1.957,-5.975789529877318e-9
1.958,-5.967601857115312e-9
1.959,-5.959708171410227e-9
1.96,-5.952225379246556e-9
1.961,-5.945014813768523e-9
1.962,-5.9383024053616396e-9
1.963,-5.931896862598762e-9
1.964,-5.925601231915323e-9
1.965,-5.919698620182601e-9
1.966,-5.913937561885518e-9
1.967,-5.908080913386016e-9
1.968,-5.902502930865694e-9
1.969,-5.8967053462311014e-9
1.97,-5.8913217637623916e-9
1.971,-5.8855953444236775e-9
1.972,-5.879845499379144e-9
1.973,-5.87388959694124e-9
1.974,-5.867789920621647e-9
1.975,-5.861303331577972e-9
1.976,-5.854706830454859e-9
1.977,-5.847443751427761e-9
1.978,-5.84005066528448e-9
1.979,-5.8320217544149955e-9
1.98,-5.823637128088421e-9
1.981,-5.814337900034161e-9
1.982,-5.813044268165868e-9
1.983,-5.8136951919252056e-9
1.984,-5.814522974212366e-9
1.985,-5.815288361965543e-9
1.986,-5.816062631502916e-9
1.987,-5.816864323548998e-9
1.988,-5.817763271132037e-9
1.989,-5.818054038542186e-9
1.99,-5.818794446277309e-9
1.991,-5.818912018895617e-9
1.992,-5.81894643580938e-9
1.993,-5.818708959104413e-9
1.994,-5.818060144768822e-9
1.995,-5.817075043879072e-9
1.996,-5.815669390507594e-9
1.997,-5.8135475322629304e-9
1.998,-5.811040870717932e-9
1.999,-5.8079107079223036e-9
2,-5.804121849806165e-9
2.001,-5.7994888891244045e-9
2.002,-5.794031032735347e-9
2.003,-5.787972767734573e-9
2.004,-5.78070991075208e-9
2.005,-5.7725775270967006e-9
2.006,-5.7635887174001255e-9
2.007,-5.753300169608622e-9
2.008,-5.741834896433318e-9
2.009,-5.729049457059432e-9
2.01,-5.715077966428339e-9
2.011,-5.6999831521409305e-9
2.012,-5.683008064139017e-9
2.013,-5.664638536018174e-9
2.014,-5.6448977714396165e-9
2.015,-5.623487675521233e-9
2.016,-5.6000645232145985e-9
2.017,-5.57512092047574e-9
2.018,-5.56479284874456e-9
2.019,-5.557614701778846e-9
2.02,-5.54980483791212e-9
2.021,-5.541807790443443e-9
2.022,-5.5335475090956265e-9
2.023,-5.524790513966593e-9
2.024,-5.515561896096699e-9
2.025,-5.505840672270779e-9
2.026,-5.495909616293204e-9
2.027,-5.484917187104088e-9
2.028,-5.4735608268075e-9
2.029,-5.461612717638786e-9
2.03,-5.448732354196295e-9
2.031,-5.435312866453046e-9
2.032,-5.421432525132275e-9
2.033,-5.406391223594653e-9
2.034,-5.3906319408270065e-9
2.035,-5.373871125868845e-9
2.036,-5.3563395940869896e-9
2.037,-5.337550734729746e-9
2.038,-5.3180980730260785e-9
2.039,-5.297078553567758e-9
2.04,-5.275397896298273e-9
2.041,-5.252357437868227e-9
2.042,-5.228035226956251e-9
2.043,-5.202771324874789e-9
2.044,-5.1759729835509916e-9
2.045,-5.1476105600301025e-9
2.046,-5.117970935941685e-9
2.047,-5.086824073075036e-9
2.048,-5.0543487173371204e-9
2.049,-5.019851645471363e-9
2.05,-4.98392471737219e-9
2.051,-4.946288822971212e-9
2.052,-4.906964390372082e-9
2.053,-4.8658296281089974e-9
2.054,-4.844258105762833e-9
2.055,-4.826809951730127e-9
2.056,-4.809764808655359e-9
2.057,-4.792899299665976e-9
2.058,-4.776148920804246e-9
2.059,-4.75950689970972e-9
2.06,-4.7431638616757255e-9
2.061,-4.72680050656038e-9
2.062,-4.710766443594139e-9
2.063,-4.694841737595823e-9
2.064,-4.6791187591210814e-9
2.065,-4.663377017877224e-9
2.066,-4.647762619214291e-9
2.067,-4.632157990513974e-9
2.068,-4.617018545260976e-9
2.069,-4.601761638411972e-9
2.07,-4.586530710781744e-9
2.071,-4.571263811925519e-9
2.072,-4.556207633399367e-9
2.073,-4.541140241620667e-9
2.074,-4.526105823465798e-9
2.075,-4.510985363026521e-9
2.076,-4.4960257739035114e-9
2.077,-4.480855797517336e-9
2.078,-4.4654607789240686e-9
2.079,-4.450296353653016e-9
2.08,-4.435195766205879e-9
2.081,-4.419728916182919e-9
2.082,-4.403941211705842e-9
2.083,-4.388331475979612e-9
2.084,-4.3723259457451036e-9
2.085,-4.3561678708670115e-9
2.086,-4.3398955540396855e-9
2.087,-4.323293278929441e-9
2.088,-4.30634805592689e-9
2.089,-4.289147814695582e-9
2.09,-4.27570567840263e-9
2.091,-4.262962538525983e-9
2.092,-4.250341412159742e-9
2.093,-4.237786455085768e-9
2.094,-4.225402028268377e-9
2.095,-4.21304258146904e-9
2.096,-4.2008940770443814e-9
2.097,-4.188569047158808e-9
2.098,-4.1763730251886955e-9
2.099,-4.1644677706287325e-9
2.1,-4.152446830829604e-9
2.101,-4.1405465722732515e-9
2.102,-4.128592134833298e-9
2.103,-4.1168373154931714e-9
2.104,-4.105181861113749e-9
2.105,-4.093327121701407e-9
2.106,-4.0818178836943275e-9
2.107,-4.0699649206388244e-9
2.108,-4.058122171635148e-9
2.109,-4.04655797758835e-9
2.11,-4.034920952911136e-9
2.111,-4.023132826880271e-9
2.112,-4.011441401274851e-9
2.113,-3.999733100279457e-9
2.114,-3.987547847472683e-9
2.115,-3.975940798817135e-9
2.116,-3.9638451410084485e-9
2.117,-3.951820426451036e-9
2.118,-3.9395480211368294e-9
2.119,-3.927398739556054e-9
2.12,-3.914974677776684e-9
2.121,-3.902508205477773e-9
2.122,-3.889829569558856e-9
2.123,-3.877145382524816e-9
2.124,-3.864148889753949e-9
2.125,-3.851221008766004e-9
2.126,-3.839945916794818e-9
2.127,-3.828775740899459e-9
2.128,-3.817925864346705e-9
2.129,-3.8071865660072035e-9
2.13,-3.79637821179557e-9
2.131,-3.785549762547191e-9
2.132,-3.774884294038827e-9
2.133,-3.7640698336005585e-9
2.134,-3.75349251680035e-9
2.135,-3.742947729534762e-9
2.136,-3.732456455018962e-9
2.137,-3.7218628179402913e-9
2.138,-3.711452478682986e-9
2.139,-3.7009614262117907e-9
2.14,-3.690623251451086e-9
2.141,-3.6804890246600053e-9
2.142,-3.6704227435180314e-9
2.143,-3.660164726859705e-9
2.144,-3.6501021094537123e-9
2.145,-3.6401268665997577e-9
2.146,-3.630369782570142e-9
2.147,-3.6201449615802517e-9
2.148,-3.6104170764161836e-9
2.149,-3.600762021882531e-9
2.15,-3.591001052072329e-9
2.151,-3.581483443149125e-9
2.152,-3.5717225843612255e-9
2.153,-3.5623798355644e-9
2.154,-3.5533282982669334e-9
2.155,-3.5438836309964472e-9
2.156,-3.534640358182628e-9
2.157,-3.525749470156825e-9
2.158,-3.5167101453126293e-9
2.159,-3.5080365279327452e-9
2.16,-3.4992858610749522e-9
2.161,-3.4908637092101458e-9
2.162,-3.4799465531420992e-9
2.163,-3.4683564908988274e-9
2.164,-3.4568137241564045e-9
2.165,-3.4449183505813608e-9
2.166,-3.43308126371511e-9
2.167,-3.4208048615980147e-9
2.168,-3.408568871599016e-9
2.169,-3.3960884104899947e-9
2.17,-3.383184399297079e-9
2.171,-3.370209555875192e-9
2.172,-3.3571468938120574e-9
2.173,-3.3434326418557703e-9
2.174,-3.329835296383976e-9
2.175,-3.3158569223701306e-9
2.176,-3.301704687430629e-9
2.177,-3.2872066180189563e-9
2.178,-3.272530468834134e-9
2.179,-3.2575705466442173e-9
2.18,-3.242138779668835e-9
2.181,-3.2266035399075577e-9
2.182,-3.2106410863264045e-9
2.183,-3.194476905221677e-9
2.184,-3.177951790611644e-9
2.185,-3.1611476769555225e-9
2.186,-3.143861837529016e-9
2.187,-3.126247150042616e-9
2.188,-3.10836800743175e-9
2.189,-3.0900744185657913e-9
2.19,-3.071398246845547e-9
2.191,-3.0525115768398337e-9
2.192,-3.0330917777376953e-9
2.193,-3.013527205553146e-9
2.194,-2.993150727270688e-9
2.195,-2.972673884826804e-9
2.196,-2.951542898976811e-9
2.197,-2.9304780824190857e-9
2.198,-2.913523866610035e-9
2.199,-2.8976093746635456e-9
2.2,-2.881780480912255e-9
2.201,-2.8664020046420546e-9
2.202,-2.8509375971097484e-9
2.203,-2.8358145831575143e-9
2.204,-2.8210389579896855e-9
2.205,-2.806417764844582e-9
2.206,-2.791973541249604e-9
2.207,-2.7780429068258172e-9
2.208,-2.764355966355936e-9
2.209,-2.7511570799276797e-9
2.21,-2.7384925438411756e-9
2.211,-2.725850656304374e-9
2.212,-2.7139112068752524e-9
2.213,-2.70248523559502e-9
2.214,-2.691126210763173e-9
2.215,-2.6806923347777456e-9
2.216,-2.6705950784133847e-9
2.217,-2.6612934078684702e-9
2.218,-2.6525740492999716e-9
2.219,-2.644283902952793e-9
2.22,-2.6368491834460883e-9
2.221,-2.630073936416011e-9
2.222,-2.623936623535883e-9
2.223,-2.6187141344280462e-9
2.224,-2.614292338165569e-9
2.225,-2.6101913963572088e-9
2.226,-2.6076043546652272e-9
2.227,-2.60559729348131e-9
2.228,-2.6043888157190054e-9
2.229,-2.6045625656223592e-9
2.23,-2.6053635915346263e-9
2.231,-2.607444926638891e-9
2.232,-2.6106824480010005e-9
2.233,-2.6144451048537576e-9
2.234,-2.6118666118790657e-9
2.235,-2.6078339487867197e-9
2.236,-2.604207294254479e-9
2.237,-2.6008527553855743e-9
2.238,-2.5976840678509916e-9
2.239,-2.594646497655617e-9
2.24,-2.5919910662253187e-9
2.241,-2.5894363320233538e-9
2.242,-2.587154046551632e-9
2.243,-2.584895297808032e-9
2.244,-2.583173008829931e-9
2.245,-2.5811397463826324e-9
2.246,-2.5796498270835855e-9
2.247,-2.5781471402197553e-9
2.248,-2.5769467670855306e-9
2.249,-2.5759245847467582e-9
2.25,-2.575017865602547e-9
2.251,-2.573980251163732e-9
2.252,-2.5735475972510358e-9
2.253,-2.572930757338554e-9
2.254,-2.572641766285244e-9
2.255,-2.5721823559976542e-9
2.256,-2.5720829910369503e-9
2.257,-2.572134283340688e-9
2.258,-2.5720742202750557e-9
2.259,-2.5722917129655798e-9
2.26,-2.572544510748287e-9
2.261,-2.5726872854292537e-9
2.262,-2.573024127094925e-9
2.263,-2.57328358621578e-9
2.264,-2.573852242448993e-9
2.265,-2.5742172837794897e-9
2.266,-2.5749063992108745e-9
2.267,-2.5754940402578086e-9
2.268,-2.576110769147988e-9
2.269,-2.5766695443962817e-9
2.27,-2.575477608957044e-9
2.271,-2.5734493425133564e-9
2.272,-2.5714533835596853e-9
2.273,-2.5689824711960796e-9
2.274,-2.5666206937557945e-9
2.275,-2.563809720079746e-9
2.276,-2.560714640331696e-9
2.277,-2.5572945983043383e-9
2.278,-2.55361620737915e-9
2.279,-2.5494283351079616e-9
2.28,-2.5449539142741173e-9
2.281,-2.540253563054762e-9
2.282,-2.53497944857628e-9
2.283,-2.5295013861281745e-9
2.284,-2.523160569367633e-9
2.285,-2.5170041606514815e-9
2.286,-2.5098536582390807e-9
2.287,-2.5023398908530226e-9
2.288,-2.494425888066587e-9
2.289,-2.4859617697714498e-9
2.29,-2.476811977736304e-9
2.291,-2.467139048611955e-9
2.292,-2.4570601109275003e-9
2.293,-2.4462204484265726e-9
2.294,-2.4347409643965534e-9
2.295,-2.4226297634655225e-9
2.296,-2.4099494622120687e-9
2.297,-2.3965057716068827e-9
2.298,-2.38241526506755e-9
2.299,-2.36742903059195e-9
2.3,-2.3518181846426955e-9
2.301,-2.3353878830789654e-9
2.302,-2.318149561197913e-9
2.303,-2.300062806881442e-9
2.304,-2.281242639234904e-9
2.305,-2.2614936590059642e-9
2.306,-2.240981955559107e-9
2.307,-2.2190488335738223e-9
2.308,-2.1968945551620322e-9
2.309,-2.1846561226723793e-9
2.31,-2.175478797106223e-9
2.311,-2.1662041049808067e-9
2.312,-2.157136136382576e-9
2.313,-2.148320965567052e-9
2.314,-2.1395475391372543e-9
2.315,-2.130757015272877e-9
2.316,-2.122412912086702e-9
2.317,-2.1138331085523987e-9
2.318,-2.1055841514794338e-9
2.319,-2.097456208716153e-9
2.32,-2.08954231695202e-9
2.321,-2.08189321337926e-9
2.322,-2.0739830963734107e-9
2.323,-2.0666397482216325e-9
2.324,-2.0593379224109754e-9
2.325,-2.052276792952057e-9
2.326,-2.0451952353894853e-9
2.327,-2.0383975618543104e-9
2.328,-2.032035428811696e-9
2.329,-2.0253224652933e-9
2.33,-2.0191420757598166e-9
2.331,-2.0130671574136727e-9
2.332,-2.0071980744162943e-9
2.333,-2.0013757318082526e-9
2.334,-1.995749565608662e-9
2.335,-1.9903151349254244e-9
2.336,-1.9853269028757836e-9
2.337,-1.980362207554265e-9
2.338,-1.975209329430072e-9
2.339,-1.970643537241301e-9
2.34,-1.96634508675686e-9
2.341,-1.9620540747666837e-9
2.342,-1.9579644572331745e-9
2.343,-1.9541296358838167e-9
2.344,-1.9508852311389546e-9
2.345,-1.948608496782356e-9
2.346,-1.946262373486718e-9
2.347,-1.9445821619612502e-9
2.348,-1.9428013642297515e-9
2.349,-1.9416055430099277e-9
2.35,-1.9404327034067137e-9
2.351,-1.9398093131783867e-9
2.352,-1.939494231883998e-9
2.353,-1.939384541849165e-9
2.354,-1.9395495209906244e-9
2.355,-1.9398875839016227e-9
2.356,-1.940624327900764e-9
2.357,-1.941559024665196e-9
2.358,-1.9427521813497606e-9
2.359,-1.9443222587511855e-9
2.36,-1.9461711131540937e-9
2.361,-1.9484158730875833e-9
2.362,-1.9505429493804627e-9
2.363,-1.9535575379592274e-9
2.364,-1.9565256081932603e-9
2.365,-1.959879369906048e-9
2.366,-1.9635215675606332e-9
2.367,-1.9671542172972067e-9
2.368,-1.971456553562234e-9
2.369,-1.975771213302835e-9
2.37,-1.9808830131751165e-9
2.371,-1.9857128163991433e-9
2.372,-1.9910461057648376e-9
2.373,-1.9967451025948435e-9
2.374,-2.00260463767421e-9
2.375,-2.008689881094483e-9
2.376,-2.015114519693384e-9
2.377,-2.0216831542185787e-9
2.378,-2.0288171143079126e-9
2.379,-2.0335869654886096e-9
2.38,-2.0349268936570297e-9
2.381,-2.0360537700270243e-9
2.382,-2.0371296871601885e-9
2.383,-2.0378512211038924e-9
2.384,-2.038122115521901e-9
2.385,-2.0382634469129357e-9
2.386,-2.038074375931842e-9
2.387,-2.037615631778067e-9
2.388,-2.036839141794644e-9
2.389,-2.035654977916579e-9
2.39,-2.03427408251855e-9
2.391,-2.0320813920449154e-9
2.392,-2.0297631353471957e-9
2.393,-2.0269109723969336e-9
2.394,-2.023739398282487e-9
2.395,-2.0199961703326608e-9
2.396,-2.0157905344930782e-9
2.397,-2.011188438011402e-9
2.398,-2.005936639015715e-9
2.399,-2.0001948985992613e-9
2.4,-1.9939205841978946e-9
2.401,-1.987227382649337e-9
2.402,-1.9797070649474335e-9
2.403,-1.9716241972389525e-9
2.404,-1.9629404768295444e-9
2.405,-1.9536600115444003e-9
2.406,-1.9438916032399334e-9
2.407,-1.933235127538069e-9
2.408,-1.9219514868495935e-9
2.409,-1.909843727609939e-9
2.41,-1.8970773840720767e-9
2.411,-1.883604494601343e-9
2.412,-1.869225552120213e-9
2.413,-1.8543163671225216e-9
2.414,-1.8406276502958008e-9
2.415,-1.8328688566882079e-9
2.416,-1.8250704281186358e-9
2.417,-1.8170248639037823e-9
2.418,-1.808689864546409e-9
2.419,-1.8006908186762871e-9
2.42,-1.7923558193189137e-9
2.421,-1.7839462129742856e-9
2.422,-1.7755221737303373e-9
2.423,-1.7668786433944206e-9
2.424,-1.7580658040472485e-9
2.425,-1.7494584669819346e-9
2.426,-1.740540822581238e-9
2.427,-1.7313628308812667e-9
2.428,-1.7223494852558474e-9
2.429,-1.71324154862873e-9
2.43,-1.7037858901503e-9
2.431,-1.694453133360696e-9
2.432,-1.6853506368263993e-9
2.433,-1.675444338822274e-9
2.434,-1.665828808228298e-9
2.435,-1.6561401139369991e-9
2.436,-1.6461287888347442e-9
2.437,-1.636211943711885e-9
2.438,-1.6261866297995198e-9
2.439,-1.6159498184009635e-9
2.44,-1.6057660756629843e-9
2.441,-1.5952770215932333e-9
2.442,-1.5849036527626481e-9
2.443,-1.574229302470087e-9
2.444,-1.5634717964729816e-9
2.445,-1.552942996418949e-9
2.446,-1.5417110921234212e-9
2.447,-1.5308753154030796e-9
2.448,-1.5196015556995235e-9
2.449,-1.5087776583655454e-9
2.45,-1.5012611154219258e-9
2.451,-1.4935621628353601e-9
2.452,-1.486416878471175e-9
2.453,-1.4793113400912716e-9
2.454,-1.472569177707328e-9
2.455,-1.4659843339259737e-9
2.456,-1.4594656594368871e-9
2.457,-1.4531701397757502e-9
2.458,-1.4474200726866115e-9
2.459,-1.4416022819929708e-9
2.46,-1.4362402378509387e-9
2.461,-1.4313963347944991e-9
2.462,-1.4263461523000842e-9
2.463,-1.421669892920363e-9
2.464,-1.4173275886264491e-9
2.465,-1.4132146564094228e-9
2.466,-1.4096593892176656e-9
2.467,-1.4060373976221285e-9
2.468,-1.4029849504382241e-9
2.469,-1.4000932635482854e-9
2.47,-1.3977295987288585e-9
2.471,-1.395593862696387e-9
2.472,-1.393741677624405e-9
2.473,-1.392079895801146e-9
2.474,-1.3909794427391375e-9
2.475,-1.3900292028523609e-9
2.476,-1.38949851624659e-9
2.477,-1.3893943773268802e-9
2.478,-1.3895167239041939e-9
2.479,-1.3898731054950986e-9
2.48,-1.390936588130387e-9
2.481,-1.3923546759997407e-9
2.482,-1.3939209786428819e-9
2.483,-1.3961169997855905e-9
2.484,-1.3985294033957985e-9
2.485,-1.3981067414903237e-9
2.486,-1.3970211654168452e-9
2.487,-1.3960073097507575e-9
2.488,-1.3953405098021676e-9
2.489,-1.3945624655065103e-9
2.49,-1.39379330299505e-9
2.491,-1.393202331279042e-9
2.492,-1.392700177405004e-9
2.493,-1.392192694460448e-9
2.494,-1.391592618915638e-9
2.495,-1.391435411335351e-9
2.496,-1.3908995066813645e-9
2.497,-1.3902088369377452e-9
2.498,-1.3900997020144246e-9
2.499,-1.3896039874339294e-9
2.5,-1.3891486849715307e-9
2.501,-1.3888021843655451e-9
2.502,-1.3884697835919724e-9
2.503,-1.3880121496612219e-9
2.504,-1.3878052040894318e-9
2.505,-1.3873439064227e-9
2.506,-1.3866937598194795e-9
2.507,-1.3865422143766182e-9
2.508,-1.3857627267910289e-9
2.509,-1.3855103730975316e-9
2.51,-1.384968695283817e-9
2.511,-1.384407033455659e-9
2.512,-1.383635539475847e-9
2.513,-1.3828215239541919e-9
2.514,-1.3820350419635474e-9
2.515,-1.3811780608108393e-9
2.516,-1.380322744992668e-9
2.517,-1.3791150443864808e-9
2.518,-1.3778838070521715e-9
2.519,-1.3767933459973847e-9
2.52,-1.3719744229589992e-9
2.521,-1.3652113883821926e-9
2.522,-1.3583558722274347e-9
2.523,-1.351564749008105e-9
2.524,-1.3440564217148676e-9
2.525,-1.3367192908120273e-9
2.526,-1.3289257472237637e-9
2.527,-1.3211967075932307e-9
2.528,-1.3131672416122342e-9
2.529,-1.3047866120885487e-9
2.53,-1.2963136120092145e-9
2.531,-1.287749129552651e-9
2.532,-1.2789375114508061e-9
2.533,-1.27003341177101e-9
2.534,-1.260571536043642e-9
2.535,-1.2515343206231933e-9
2.536,-1.2421482731284073e-9
2.537,-1.2325661602474725e-9
2.538,-1.2229444124045585e-9
2.539,-1.213126155086286e-9
2.54,-1.2030610951896392e-9
2.541,-1.1930070265009363e-9
2.542,-1.1828613644127017e-9
2.543,-1.1726263293709849e-9
2.544,-1.1621399398364929e-9
2.545,-1.1517712339426112e-9
2.546,-1.1412075728856053e-9
2.547,-1.1306562353041727e-9
2.548,-1.1198039162607643e-9
2.549,-1.1090687257464538e-9
2.55,-1.098137358823692e-9
2.551,-1.0872692746133339e-9
2.552,-1.0762070123959688e-9
2.553,-1.0652602133731648e-9
2.554,-1.0542232642407612e-9
2.555,-1.0390630578172022e-9
2.556,-1.02065433882359e-9
2.557,-1.0014395979141e-9
2.558,-9.822516133795034e-10
2.559,-9.623597474472945e-10
2.56,-9.420814128802135e-10
2.561,-9.21566489786585e-10
2.562,-9.005576284693007e-10
2.563,-8.791080086112402e-10
2.564,-8.573189935745518e-10
2.565,-8.349853031219823e-10
2.566,-8.124674266696275e-10
2.567,-7.895103459887309e-10
2.568,-7.661106193879164e-10
2.569,-7.424745263051591e-10
2.57,-7.183464934001904e-10
2.571,-6.938273289236463e-10
2.572,-6.690742404558137e-10
2.573,-6.440351585368376e-10
2.574,-6.18556206255505e-10
2.575,-5.92684679112665e-10
2.576,-5.666830338313389e-10
2.577,-5.400837554958571e-10
2.578,-5.133032887627564e-10
2.579,-4.861848701409599e-10
2.58,-4.587281665635601e-10
2.581,-4.312441514997545e-10
2.582,-4.030584754843858e-10
2.583,-3.747939736342687e-10
2.584,-3.460881581318631e-10
2.585,-3.171493068165887e-10
2.586,-2.881838101487233e-10
2.587,-2.586724168196497e-10
2.588,-2.287697808966982e-10
2.589,-1.986852904423131e-10
2.59,-1.741672361887936e-10
2.591,-1.5926759910911414e-10
2.592,-1.449211861626054e-10
2.593,-1.3112877450538463e-10
2.594,-1.181512665482387e-10
2.595,-1.0567424713059381e-10
2.596,-9.364831132785412e-11
2.597,-8.24866841497851e-11
2.598,-7.177447525208436e-11
2.599,-6.177114375560677e-11
2.6,-5.237577038741392e-11
2.601,-4.348110760332702e-11
2.602,-3.519318170219776e-11
2.603,-2.7822633086316273e-11
2.604,-2.074629357196045e-11
2.605,-1.46379575127753e-11
2.606,-9.08340069827318e-12
2.607,-4.031774913926256e-12
2.608,4.670708264598034e-13
2.609,4.099387496125928e-12
2.61,6.763367643713991e-12
2.611,9.3922647437239e-12
2.612,1.0948797424248369e-11
2.613,1.2002177030012717e-11
2.614,1.2190470854989144e-11
2.615,1.1876832850532537e-11
2.616,1.080147082888061e-11
2.617,9.225731290030126e-12
2.618,6.627476345499872e-12
2.619,3.5803582321136673e-12
2.62,-2.816635813474022e-13
2.621,-4.852784840636559e-12
2.622,-1.0289991081435801e-11
2.623,-1.6124435120445924e-11
2.624,-2.2876922578518588e-11
2.625,-2.8245517036395995e-11
2.626,-2.5145996396247483e-11
2.627,-2.2239654562383748e-11
2.628,-1.9838797271631847e-11
2.629,-1.7218115822004165e-11
2.63,-1.4738654741108803e-11
2.631,-1.2554735029368658e-11
2.632,-1.0357381619030548e-11
2.633,-8.458678202316605e-12
2.634,-6.700306975915282e-12
2.635,-5.032640970625835e-12
2.636,-3.5065284009760944e-12
2.637,-1.911693026102057e-12
2.638,-9.28590537796481e-13
2.639,4.32764934998886e-13
2.64,1.1328715743275097e-12
2.641,2.00317540333117e-12
2.642,2.4205082382877663e-12
2.643,2.80020451270957e-12
2.644,3.1925573296121e-12
2.645,2.9775071297422073e-12
2.646,2.7221558340784213e-12
2.647,2.6405544417684723e-12
2.648,2.0513590825999017e-12
2.649,1.3219425554211739e-12
2.65,4.4864112425102576e-13
2.651,-8.225642389447785e-13
2.652,-2.1866952693017083e-12
2.653,-3.743561016733565e-12
2.654,-5.3895776730428224e-12
2.655,-7.594036510738533e-12
2.656,-9.5741192751575e-12
2.657,-1.211353239938262e-11
2.658,-1.474154132097283e-11
2.659,-1.7669088414606904e-11
2.66,-2.0802914946216333e-11
2.661,-2.269340271254805e-11
2.662,-2.498035112097341e-11
2.663,-2.7489566178928726e-11
2.664,-2.9883762131532876e-11
2.665,-3.250311131353101e-11
2.666,-3.5378144858100313e-11
2.667,-3.833189321511554e-11
2.668,-4.1234682335300477e-11
2.669,-4.458544644592166e-11
2.67,-4.773736961283248e-11
2.671,-5.134326297451253e-11
2.672,-5.4857451914358535e-11
2.673,-5.862155205704767e-11
2.674,-6.23577856018187e-11
2.675,-6.645262118354367e-11
2.676,-7.052392003714658e-11
2.677,-7.465317253263493e-11
2.678,-7.917755340258736e-11
2.679,-8.366074499832621e-11
2.68,-8.812939267244246e-11
2.681,-9.298128933465932e-11
2.682,-9.787715082865134e-11
2.683,-1.026922991087531e-10
2.684,-1.0807876815732698e-10
2.685,-1.1333955995951328e-10
2.686,-1.1875989081033822e-10
2.687,-1.2411338623508072e-10
2.688,-1.2984269215365885e-10
2.689,-1.3566414658328085e-10
2.69,-1.416105011031732e-10
2.691,-1.4765522138304732e-10
2.692,-1.5377576989550334e-10
2.693,-1.601586641086783e-10
2.694,-1.6641599209776814e-10
2.695,-1.7299206511722787e-10
2.696,-1.796086612770864e-10
2.697,-1.863933452028732e-10
2.698,-1.933252447017253e-10
2.699,-2.0027879354955758e-10
2.7,-2.075387639521864e-10
2.701,-2.1488077983633502e-10
2.702,-2.2232971019775505e-10
2.703,-2.2960355838819169e-10
2.704,-2.3730406528699177e-10
2.705,-2.450939451392742e-10
2.706,-2.5300417316742596e-10
2.707,-2.609082949689423e-10
2.708,-2.689899414320962e-10
2.709,-2.7717594885956487e-10
2.71,-2.8570246168868607e-10
2.711,-2.9407887236487795e-10
2.712,-3.0238711534735785e-10
2.713,-3.112768931501364e-10
2.714,-3.2026026275389086e-10
2.715,-3.2869140742519676e-10
2.716,-3.377926827141664e-10
2.717,-3.469707854364401e-10
2.718,-3.562028449977106e-10
2.719,-3.654120339646738e-10
2.72,-3.7483882664446355e-10
2.721,-3.8440584049226345e-10
2.722,-3.940903159360687e-10
2.723,-4.037141732027294e-10
2.724,-4.1377334891734563e-10
2.725,-4.2341430361858556e-10
2.726,-4.3375858460592553e-10
2.727,-4.437409328872377e-10
2.728,-4.541207410113657e-10
2.729,-4.6425052691034807e-10
2.73,-4.749387549907169e-10
2.731,-4.818847543219817e-10
2.732,-4.870003289525471e-10
2.733,-4.918886409299716e-10
2.734,-4.968185862708197e-10
2.735,-5.017491977454824e-10
2.736,-5.061738805878235e-10
2.737,-5.105683653638948e-10
2.738,-5.146847392722975e-10
2.739,-5.184819240611205e-10
2.74,-5.224850552210114e-10
2.741,-5.259335189577996e-10
2.742,-5.2956061757925e-10
2.743,-5.324415353058498e-10
2.744,-5.354181542571723e-10
2.745,-5.380893508544204e-10
2.746,-5.406681768960198e-10
2.747,-5.429607874418707e-10
2.748,-5.4466586796309e-10
2.749,-5.464141361599673e-10
2.75,-5.479610099001775e-10
2.751,-5.493151489233128e-10
2.752,-5.504315891968758e-10
2.753,-5.511189282714213e-10
2.754,-5.515423673330133e-10
2.755,-5.517604151350497e-10
2.756,-5.514769751968629e-10
2.757,-5.512182932321252e-10
2.758,-5.505282896223207e-10
2.759,-5.49369216784612e-10
2.76,-5.483193898925265e-10
2.761,-5.464532160104341e-10
2.762,-5.447194917351794e-10
2.763,-5.423503868229318e-10
2.764,-5.397662317108143e-10
2.765,-5.369850120118258e-10
2.766,-5.337512654080001e-10
2.767,-5.301834526960647e-10
2.768,-5.261334701245346e-10
2.769,-5.219267240619274e-10
2.77,-5.174176642697148e-10
2.771,-5.120929236213101e-10
2.772,-5.065410313420671e-10
2.773,-5.010803993954482e-10
2.774,-4.945758247387744e-10
2.775,-4.881871573658714e-10
2.776,-4.8109027872556e-10
2.777,-4.737645831198734e-10
2.778,-4.659607144574807e-10
2.779,-4.5805170767465597e-10
2.78,-4.492671790146119e-10
2.781,-4.4029857537708494e-10
2.782,-4.306843770507385e-10
2.783,-4.2090508856063025e-10
2.784,-4.1045067344924746e-10
2.785,-3.995931363576233e-10
2.786,-3.883907639945505e-10
2.787,-3.7675451647345426e-10
2.788,-3.645906909710561e-10
2.789,-3.519058378032014e-10
2.79,-3.38507666342025e-10
2.791,-3.249768232294059e-10
2.792,-3.109084101282633e-10
2.793,-2.9610092155962775e-10
2.794,-2.81194734164103e-10
2.795,-2.6562485544445735e-10
2.796,-2.4950952415281336e-10
2.797,-2.3280355421206878e-10
2.798,-2.156207434822477e-10
2.799,-1.976128150005252e-10
2.8,-1.7961898635121543e-10
2.801,-1.676242478154677e-10
2.802,-1.7097900872897753e-10
2.803,-1.752503697716179e-10
2.804,-1.7944323804641726e-10
2.805,-1.842815899877337e-10
2.806,-1.894988610473547e-10
2.807,-1.952963346596448e-10
2.808,-2.0146262436071538e-10
2.809,-2.080452476960204e-10
2.81,-2.1503909763964657e-10
2.811,-2.2269408539443702e-10
2.812,-2.306442814514753e-10
2.813,-2.391455922179375e-10
2.814,-2.4803548104301854e-10
2.815,-2.5751645260641e-10
2.816,-2.673756771542912e-10
2.817,-2.7807167679583245e-10
2.818,-2.8892921388745663e-10
2.819,-3.004606563550283e-10
2.82,-3.1255509291838734e-10
2.821,-3.2500013791292304e-10
2.822,-3.382588653622065e-10
2.823,-3.517028890342999e-10
2.824,-3.660506342484382e-10
2.825,-3.809382809194517e-10
2.826,-3.964594208483163e-10
2.827,-4.122474583923008e-10
2.828,-4.2892212004375097e-10
2.829,-4.4606141003100674e-10
2.83,-4.6376102957879084e-10
2.831,-4.821737453752917e-10
2.832,-5.010871717558985e-10
2.833,-5.207015929542536e-10
2.834,-5.410669690064651e-10
2.835,-5.618092657755369e-10
2.836,-5.834999150522435e-10
2.837,-6.055048684672215e-10
2.838,-6.28186613838011e-10
2.839,-6.517476558443036e-10
2.84,-6.759718340632048e-10
2.841,-7.00856594981758e-10
2.842,-7.263952772618154e-10
2.843,-7.525819967213465e-10
2.844,-7.793586886961634e-10
2.845,-8.072430501826489e-10
2.846,-8.353951974626739e-10
2.847,-8.646410254442571e-10
2.848,-8.945637564039544e-10
2.849,-9.251007737631767e-10
2.85,-9.560939817632175e-10
2.851,-9.884715268526634e-10
2.852,-1.0211894663214593e-9
2.853,-1.0547632767199389e-9
2.854,-1.0890808255226148e-9
2.855,-1.124087378734373e-9
2.856,-1.1599849969456955e-9
2.857,-1.1967674629076441e-9
2.858,-1.2342238342455403e-9
2.859,-1.2724994391533073e-9
2.86,-1.3115953878539699e-9
2.861,-1.351606271349226e-9
2.862,-1.3922671904254003e-9
2.863,-1.4338863429941284e-9
2.864,-1.4764043321235931e-9
2.865,-1.5195583680238656e-9
2.866,-1.5638590422639709e-9
2.867,-1.6090966337145574e-9
2.868,-1.6548495906931748e-9
2.869,-1.7014756270583575e-9
2.87,-1.749122957583893e-9
2.871,-1.7978433186627285e-9
2.872,-1.810105176858201e-9
2.873,-1.8198509366129656e-9
2.874,-1.8286476777262806e-9
2.875,-1.8368516707667482e-9
2.876,-1.844352670588023e-9
2.877,-1.8508344856726922e-9
2.878,-1.8567032356031632e-9
2.879,-1.8614357832902328e-9
2.88,-1.8656020062124412e-9
2.881,-1.868822097073064e-9
2.882,-1.8711995286579963e-9
2.883,-1.8725202499680904e-9
2.884,-1.872879740183464e-9
2.885,-1.8724842787420926e-9
2.886,-1.871061638958338e-9
2.887,-1.868610377542268e-9
2.888,-1.865120169419754e-9
2.889,-1.8607984042517955e-9
2.89,-1.8554262570802393e-9
2.891,-1.8489477726646442e-9
2.892,-1.8414600955196647e-9
2.893,-1.8326452577710484e-9
2.894,-1.8230154053000547e-9
2.895,-1.81230752627215e-9
2.896,-1.800304350041415e-9
2.897,-1.787262005059631e-9
2.898,-1.7728633006086625e-9
2.899,-1.757720746731195e-9
2.9,-1.7409500507881148e-9
2.901,-1.7232681948087247e-9
2.902,-1.7041559274844076e-9
2.903,-1.6839625249787105e-9
2.904,-1.662687876269331e-9
2.905,-1.6396982660538129e-9
2.906,-1.6155121684846563e-9
2.907,-1.5902724692651304e-9
2.908,-1.5636683059483403e-9
2.909,-1.5356864668802928e-9
2.91,-1.5062743274896206e-9
2.911,-1.475527922067954e-9
2.912,-1.4434399231433304e-9
2.913,-1.409901195792429e-9
2.914,-1.374908409346176e-9
2.915,-1.3386566299899982e-9
2.916,-1.30072908e-9
2.917,-1.2613782240933347e-9
2.918,-1.2206993194041615e-9
2.919,-1.178328767892367e-9
2.92,-1.1345149264485599e-9
2.921,-1.0894580793063824e-9
2.922,-1.0425863505858501e-9
2.923,-9.938874168113898e-10
2.924,-9.442413517746218e-10
2.925,-8.922955707646452e-10
2.926,-8.39125213758507e-10
2.927,-7.844699334569327e-10
2.928,-7.275990920874165e-10
2.929,-6.69695299215789e-10
2.93,-6.097687910155969e-10
2.931,-5.481248788186122e-10
2.932,-4.848076384789124e-10
2.933,-4.1981185194828186e-10
2.934,-3.531340775353442e-10
2.935,-2.8460722667489335e-10
2.936,-2.1412593920189238e-10
2.937,-1.4219891930622452e-10
2.938,-6.815059627740538e-11
2.939,7.615796882021186e-12
2.94,8.515765870242831e-11
2.941,1.6463230778640536e-10
2.942,2.0234625086601454e-10
2.943,2.0995283289693134e-10
2.944,2.1608004274753512e-10
2.945,2.2119583942270538e-10
2.946,2.24937735104902e-10
2.947,2.2735091587122724e-10
2.948,2.2838997359997393e-10
2.949,2.2810342503731817e-10
2.95,2.263872422858526e-10
2.951,2.2323920489952798e-10
2.952,2.1882162748454448e-10
2.953,2.1250290416219286e-10
2.954,2.0517010312914863e-10
2.955,1.9588852762097986e-10
2.956,1.8517121169736583e-10
2.957,1.7286883036149447e-10
2.958,1.5876988612717469e-10
2.959,1.4344725407511305e-10
2.96,1.2606959920447025e-10
2.961,1.0730794031132973e-10
2.962,8.654377214867282e-11
2.963,6.413591879805836e-11
2.964,3.993294583892748e-11
2.965,1.3930079312274302e-11
2.966,-1.3871237491969168e-11
2.967,-4.3676839922568433e-11
2.968,-7.523193179537202e-11
2.969,-1.086888357093585e-10
2.97,-1.442062025347468e-10
2.971,-1.817314077001697e-10
2.972,-2.21214713214124e-10
2.973,-2.6244173501055457e-10
2.974,-3.0614888402169527e-10
2.975,-3.517082181048181e-10
2.976,-3.994852226796297e-10
2.977,-4.493767580271424e-10
2.978,-5.01432007027347e-10
2.979,-5.555529369871692e-10
2.98,-6.120457474168006e-10
2.981,-6.707067123912225e-10
2.982,-7.315881234148947e-10
2.983,-7.948416369529809e-10
2.984,-8.605278711826259e-10
2.985,-9.284314428370521e-10
2.986,-9.987108917641763e-10
2.987,-1.071369548633072e-9
2.988,-1.1466112503910608e-9
2.989,-1.2241784252964294e-9
2.99,-1.3043336410945017e-9
2.991,-1.386811998571602e-9
2.992,-1.4720337171425513e-9
2.993,-1.559897211400596e-9
2.994,-1.6500316668555115e-9
2.995,-1.7430661358730504e-9
2.996,-1.8388449651851602e-9
2.997,-1.9370051118627885e-9
2.998,-2.038063051656991e-9
2.999,-2.1416601825308135e-9
3,-2.247896979667985e-9
3.0000000006000214,-2.2481150274700212e-9
3.0000000006000214,-3.063018086280067e-6
3.000483535413287,0.5001042417802637
3.000483535413287,0.5001042417802637
3.0008724068775363,-0.43688570434117374
3.0008724068775363,-0.43688570434117374
3.001,0.07994842496483423
3.002,-0.12040046697747098
3.003,0.38067767703756256
3.004,-0.6145971466760461
3.005,0.5246565079838796
3.006,-0.2847423501561964
3.007,0.13660265881781186
3.008,0.08021565099327582
3.009,-0.21533426051768637
3.01,0.1638952883142053
3.011,-0.17133252880253752
3.012,0.12384282749991415
3.013,-0.05678433641839031
3.0134429957479645,0.00863219883767341
3.0134429957479645,0.00863219883767341
3.013922619700825,-0.008139109011166434
3.013922619700825,1.5673071977016373
3.014,1.3735060259071417
3.015,-0.309121638066744
3.016,0.06527676328526744
3.017,0.006590837191566445
3.017368026363122,0.00775728070136833
3.017368026363122,0.00775728070136833
3.018,0.007090761229426368
3.018488860529027,0.007435693598031173
3.018488860529027,0.007435693598031173
3.019,0.003903853939210722
3.02,-0.003104069174337032
3.021,0.004935848863809673
3.02105184704751,0.004011231165016137
3.02105184704751,0.004011231165016137
3.022,-0.003997956382199019
3.0223657387478693,-0.005573194213522037
3.0223657387478693,-0.005573194213522037
3.023,-0.004093401780738026
3.024,-0.006203080149803031
3.025,-0.00786407144696194
3.026,-0.014205038801975212
3.027,-0.02106944700280078
3.0278452333521892,-0.04121911864802985
3.0278452333521892,1.4221274773694894
3.028,-0.38939371508866527
3.028329847985473,0.4862428484639456
3.028329847985473,0.4862428484639456
3.029,0.7594818977354709
3.03,-0.8842189910711222
3.031,0.8152957109065755
3.032,-0.5589870123994772
3.033,0.265896952992993
3.034,0.006723028507128893
3.035,-0.18951269360803197
3.035856877109815,-0.09804549582817931
3.035856877109815,-0.09804549582817931
3.036,0.2704801209856365
3.036977710667985,-0.24446565298903053
3.036977710667985,-0.24446565298903053
3.037,-0.24598510878878282
3.038,0.16231983592897253
3.039,-0.07614290758675069
3.04,-0.0072390605996464075
3.041,0.044410716841243536
3.0412881659013076,-0.020574593111536532
3.0412881659013076,-0.020574593111536532
3.0417678413850444,0.08292835967393719
3.0417678413850444,1.6649638388742296
3.042,-0.7769920878601773
3.0421036807578994,-1.5319026337276203
3.0421036807578994,-1.5319026337276203
3.042976086532063,1.2762818541240948
3.042976086532063,1.2762818541240948
3.043,1.34844799222624
3.044,-0.6392238364858972
3.045,-0.464219860591493
3.046,0.765251094544058
3.047,-0.08644605677650524
3.048,-0.47616735225772
3.049,0.2854650241551025
3.05,0.18525667064235518
3.051,-0.2786084102379901
3.052,0.010306636510662326
3.053,0.16364221199021156
3.054,-0.1440173117822412
3.0543457181804046,0.049707361488266155
3.0543457181804046,0.049707361488266155
3.055,-0.027207352367294435
3.0554665511752455,0.08108878186691348
3.0554665511752455,0.08108878186691348
3.0556904440132997,-0.12050147833042324
3.0556904440132997,1.3477827065387076
3.056,-1.298781431485468
3.0561664210048454,0.4517061146945641
3.0561664210048454,0.4517061146945641
3.057,0.8365902788247328
3.058,-0.3278544632161796
3.059,-0.09366866235132115
3.06,0.37642354611363527
3.061,-0.47317192180026857
3.062,0.42237353620679075
3.063,-0.2760815263296089
3.0631555022474686,0.19069406779521736
3.0631555022474686,0.19069406779521736
3.0633281855360996,0.2185123983585548
3.0633281855360996,0.2185123983585548
3.06380382306979,0.21356338718862886
3.06380382306979,0.21356338718862886
3.0639921348760346,0.12426310659929218
3.0639921348760346,0.12426310659929218
3.064,0.10406230786315128
3.064469392424546,0.23620168525635915
3.064469392424546,0.23620168525635915
3.0645369559290128,0.24346387995849217
3.0645369559290128,0.24346387995849217
3.0647017804135626,-0.080903704488894
3.0647017804135626,-0.080903704488894
3.0647542486642645,-0.18303670157941426
3.0647542486642645,-0.18303670157941426
3.064939733977554,-0.10114787224197028
3.064939733977554,-0.10114787224197028
3.065,0.032794199629242404
3.0651370516283802,0.21557531844670705
3.0651370516283802,0.21557531844670705
3.065292610535435,0.007190546152327254
3.065292610535435,0.007190546152327254
3.0653935914160475,-0.17672474663436633
3.0653935914160475,-0.17672474663436633
3.0655877063316557,-0.06015535114737716
3.0655877063316557,-0.06015535114737716
3.065765786764975,0.19080051236673312
3.065765786764975,0.19080051236673312
3.066,-0.11923645527203197
3.066174745136794,-0.11860243103097023
3.066174745136794,-0.11860243103097023
3.066426366530415,0.16802810830416753
3.066426366530415,0.16802810830416753
3.066773198217745,-0.14030811931269954
3.066773198217745,-0.14030811931269954
3.067,0.1372972027828701
3.0670390796576763,0.14686858140583164
3.0670390796576763,0.14686858140583164
3.0674268353376872,-0.1133201194014154
3.0674268353376872,-0.1133201194014154
3.0676365454288548,0.11740415505417295
3.0676365454288548,0.11740415505417295
3.068,-0.12883029343089092
3.0680549527571204,-0.10390722701188626
3.0680549527571204,-0.10390722701188626
3.06830133596675,0.11264084853604056
3.06830133596675,0.11264084853604056
3.0686333712215434,-0.11108092614415555
3.0686333712215434,-0.11108092614415555
3.0689571529527044,0.0974969061919162
3.0689571529527044,0.0974969061919162
3.069,0.08296263074264543
3.0692377332706995,-0.09846667689965871
3.0692377332706995,-0.09846667689965871
3.069556474090675,0.07874108015253911
3.069556474090675,0.07874108015253911
3.0696130416349146,0.07728686316438971
3.0696130416349146,1.6588698358296272
3.069871093749188,-1.1052555396083996
3.069871093749188,-1.1052555396083996
3.07,-1.2726654335312346
3.070182469202372,1.1969595183077872
3.070182469202372,1.1969595183077872
3.0704523229817213,-0.6947540109015785
3.0704523229817213,-0.6947540109015785
3.070871701540192,1.3235533695631525
3.070871701540192,1.3235533695631525
3.070989701915204,0.22222570792480933
3.070989701915204,0.22222570792480933
3.071,0.08214870761305315
3.071520742398702,0.9321678360472325
3.071520742398702,0.9321678360472325
3.0715553275894036,0.6034239992694665
3.0715553275894036,0.6034239992694665
3.072,0.9429048318691216
3.0728345502819843,-0.3743384389623031
3.0728345502819843,-0.3743384389623031
3.073,-0.7392022287245629
3.0739553827547508,0.16604764229656083
3.0739553827547508,0.16604764229656083
3.074,-0.18483189241772358
3.075,0.612357807664538
3.076,-0.15832594646438455
3.077,-0.3396523953419949
3.078,0.25329953403428784
3.079,0.10351317740052768
3.08,-0.23307125694433495
3.081,0.05470260141849209
3.082,0.08225112774681909
3.083,-0.14106834303900584
3.0835356344315366,-0.12235755765405087
3.0835356344315366,1.3460899940353979
3.084,0.3004387913402147
3.084097037457138,1.1832596361032333
3.084097037457138,1.1832596361032333
3.0842073125133975,0.9418975309958071
3.0842073125133975,0.9418975309958071
3.085,-0.6619218230445776
3.085079717359121,-1.040405517702765
3.085079717359121,-1.040405517702765
3.085321037840723,0.6830677053493481
3.085321037840723,0.6830677053493481
3.0855822840526077,-0.1258668694825824
3.0855822840526077,-0.1258668694825824
3.0857578831452535,-0.8722551043422466
3.0857578831452535,-0.8722551043422466
3.08584873728679,-0.3070186092170183
3.08584873728679,-0.3070186092170183
3.085926521171256,0.37146085004816826
3.085926521171256,0.37146085004816826
3.086,0.8113875972890023
3.0862073858407,-0.06003909570594851
3.0862073858407,-0.06003909570594851
3.0863400969530614,-0.8269875298100264
3.0863400969530614,-0.8269875298100264
3.086459192972077,-0.45880667132476577
3.086459192972077,-0.45880667132476577
3.0865722704887295,0.39673310601946155
3.0865722704887295,0.39673310601946155
3.0868151128764003,0.1374683042210147
3.0868151128764003,0.1374683042210147
3.0869301942305287,-0.6050977610544277
3.0869301942305287,-0.6050977610544277
3.087,-0.7275842645597712
3.0870650022467614,-0.5387958444774427
3.0870650022467614,-0.5387958444774427
3.0872555068454184,0.6092706164396549
3.0872555068454184,0.6092706164396549
3.0874357177205405,0.21678334802862298
3.0874357177205405,0.21678334802862298
3.087854012126907,0.41352589568970416
3.087854012126907,0.41352589568970416
3.088,0.5044242834382955
3.088079793613052,0.11321874313667321
3.088079793613052,0.11321874313667321
3.0884538153427616,0.20521763881636035
3.0884538153427616,0.20521763881636035
3.0886892977303724,0.19473475692441192
3.0886892977303724,0.19473475692441192
3.089,-0.21842662323216053
3.0891478597676283,0.40514714602825863
3.0891478597676283,0.40514714602825863
3.0892229301378538,0.45953941823079064
3.0892229301378538,0.45953941823079064
3.089507029459356,-0.43525196853603504
3.089507029459356,-0.43525196853603504
3.0895881883988316,-0.3265556983143531
3.0895881883988316,-0.3265556983143531
3.09,-0.02938364590683614
3.091,0.1882258163937898
3.0913233740726356,-0.2066753781285557
3.0913233740726356,-0.2066753781285557
3.092,-0.2436273578906699
3.0924442060616806,0.15603923714521212
3.0924442060616806,0.15603923714521212
3.093,0.21108886539618985
3.094,-0.14222591047136263
3.095,0.05421278241405947
3.095777464057961,-0.11044740983202311
3.095777464057961,-0.11044740983202311
3.0959655161408124,-0.03859375923789671
3.0959655161408124,-0.03859375923789671
3.096,0.0019386883910044728
3.096349802682508,-0.04225247476481275
3.096349802682508,-0.04225247476481275
3.096626460198406,-0.0076582790317547556
3.096626460198406,-0.0076582790317547556
3.096966445351954,-0.02062658267416473
3.096966445351954,-0.02062658267416473
3.097,-0.050953941561098226
3.097271772344521,-0.004792437009743411
3.097271772344521,-0.004792437009743411
3.0974582227702347,0.07638257672595894
3.0974582227702347,1.6579133743441137
3.097560677831702,1.2025309618073505
3.097560677831702,1.2025309618073505
3.098,0.880654685135483
3.099,-1.2672739366747567
3.1,0.5187866629313731
3.1000005463906715,0.5133558204372699
3.1000005463906715,0.5133558204372699
3.101,0.5513274820414047
3.102,-0.6678401404078753
3.103,-0.02999175025175349
3.104,0.47676279813218114
3.105,-0.19523034413678866
3.105259112505891,0.286504074234409
3.105259112505891,0.286504074234409
3.106,-0.23435215773590976
3.1065730014022654,-0.17183935591799257
3.1065730014022654,-0.17183935591799257
3.107,0.23335783283414485
3.108,0.019387976452264477
3.109,-0.17794436991827334
3.1098121901469367,0.04289157805149468
3.1098121901469367,0.04289157805149468
3.11,0.07979865456627977
3.110933021687919,-0.08107042592403912
3.110933021687919,-0.08107042592403912
3.111,-0.006664697163018096
3.111380806803119,-0.12305948157828983
3.111380806803119,1.3454611424084877
3.111764858925243,-0.7014221217197236
3.111764858925243,-0.7014221217197236
3.112,1.228146524618085
3.113,-0.8164426639913025
3.114,0.37092389466467984
3.115,0.04021311008213391
3.116,-0.3090755516329502
3.117,0.4210457856056391
3.118,-0.38258391730125885
3.119,0.25434367342771247
3.12,-0.10273392723502237
3.121,-0.028450224159615706
3.122,0.10061923286404173
3.123,-0.1331655714217463
3.124,0.11267504450938909
3.1248261325076294,-0.03198952919064435
3.1248261325076294,-0.03198952919064435
3.125,-0.09294287699755732
3.125303386868877,0.07787923112571082
3.125303386868877,1.659530677495835
3.126,1.2516367966121482
3.1263109030660745,-1.0717945828701243
3.1263109030660745,-1.0717945828701243
3.1263806288189615,-0.2074019725562486
3.1263806288189615,-0.2074019725562486
3.127,0.03766370583680767
3.1270007698005244,0.04767560703693163
3.1270007698005244,0.04767560703693163
3.127065491535183,0.8075456030703135
3.127065491535183,0.8075456030703135
3.1271833071316353,1.1221308144251392
3.1271833071316353,1.1221308144251392
3.12740846151115,-1.0466993317018622
3.12740846151115,-1.0466993317018622
3.1274848312529016,-1.0234707243797645
3.1274848312529016,-1.0234707243797645
3.1275793583608946,-0.16509167698633698
3.1275793583608946,-0.16509167698633698
3.1277324745655584,1.0958245833324531
3.1277324745655584,1.0958245833324531
3.127995576101288,-0.8927589150518788
3.127995576101288,-0.8927589150518788
3.128,-0.9134551714965369
3.128123154561451,-0.6343773403103452
3.128123154561451,-0.6343773403103452
3.128134506657309,-0.5368914554382462
3.128134506657309,-0.5368914554382462
3.128300999105909,0.9117667330877911
3.128300999105909,0.9117667330877911
3.1283590456613104,0.948742172277308
3.1283590456613104,0.948742172277308
3.1285917730364736,-0.8252598564668996
3.1285917730364736,-0.8252598564668996
3.128950487628269,0.8337730209087817
3.128950487628269,0.8337730209087817
3.129,0.6189379184559967
3.1292075450262846,-0.8024945152286662
3.1292075450262846,-0.8024945152286662
3.129421830231772,0.39850566551751704
3.129421830231772,0.39850566551751704
3.1295528803081547,0.7187595033701492
3.1295528803081547,0.7187595033701492
3.1297883636688946,-0.6915494856920869
3.1297883636688946,-0.6915494856920869
3.13,0.2964312394656837
3.1302081648567164,0.3293504860696971
3.1302081648567164,0.3293504860696971
3.1303241414027303,-0.4350883415756908
3.1303241414027303,-0.4350883415756908
3.13053125194006,-0.1079564358390345
3.13053125194006,-0.1079564358390345
3.130666631924695,0.5873501463068038
3.130666631924695,0.5873501463068038
3.131,-0.572190363182258
3.1311642909650454,0.16833103604046193
3.1311642909650454,0.16833103604046193
3.1311915361739535,0.3111980286159269
3.1311915361739535,0.3111980286159269
3.132,0.07404603922491385
3.133,0.3483725017938334
3.134,-0.2059282060951279
3.135,-0.14032215352185007
3.136,0.1949645084157579
3.137,-0.0451000851576715
3.138,-0.12117956411194974
3.138822492517577,-0.03238290057192217
3.138822492517577,-0.03238290057192217
3.139,0.0748067799998049
3.139009705118563,0.07160519438978707
3.139009705118563,0.07160519438978707
3.1392259630926547,-0.12284744804459724
3.1392259630926547,1.3456700573899245
3.1393681683997556,-0.28559160224736646
3.1393681683997556,-0.28559160224736646
3.139707431482851,0.5069944681004827
3.139707431482851,0.5069944681004827
3.1399698236751856,0.1638233603570317
3.1399698236751856,0.1638233603570317
3.14,-0.2015534827022839
3.140380271646156,0.7839236855700589
3.140380271646156,0.7839236855700589
3.1405647179094576,0.5942901393348148
3.1405647179094576,0.5942901393348148
3.141,0.5938397478445009
3.142,-0.7452472781808204
3.143,0.6955524000104158
3.144,-0.48526421018922994
3.145,0.22241086546341082
3.146,0.017411573489847884
3.146789801458995,0.3146765266284472
3.146789801458995,0.3146765266284472
3.147,-0.17319358227028425
3.14736268499814,0.24882791742232446
3.14736268499814,0.24882791742232446
3.147585996712345,-0.03318885967473069
3.147585996712345,-0.03318885967473069
3.147910632200561,0.06129971726802805
3.147910632200561,0.06129971726802805
3.147953027149872,0.15540768013444964
3.147953027149872,0.15540768013444964
3.148,0.22627916746095147
3.1483256378818316,-0.22015267327813523
3.1483256378818316,-0.22015267327813523
3.148676572818788,0.21045663273957016
3.148676572818788,0.21045663273957016
3.1487030429235117,0.20164932927029383
3.1487030429235117,0.20164932927029383
3.1488411463298878,-0.02086722527928353
3.1488411463298878,-0.02086722527928353
3.149,-0.2087356465374192
3.1490575944784815,-0.16587506582827682
3.1490575944784815,-0.16587506582827682
3.1494332541811674,0.05740102119601692
3.1494332541811674,0.05740102119601692
3.149697720720183,-0.13143108761514777
3.149697720720183,-0.13143108761514777
3.15,0.1385101199367989
3.1500514024275104,0.07512927517492146
3.1500514024275104,0.07512927517492146
3.1503028711630074,-0.141051959056067
3.1503028711630074,-0.141051959056067
3.150702661926834,0.03660868256598687
3.150702661926834,0.03660868256598687
3.150916981347342,-0.1395250628234891
3.150916981347342,-0.1395250628234891
3.151,-0.07081737255302822
3.1513087071125483,0.0623433793082539
3.1513087071125483,0.0623433793082539
3.151575710534786,-0.11091662738406743
3.151575710534786,-0.11091662738406743
3.1518957405292003,0.09477817549190976
3.1518957405292003,0.09477817549190976
3.152,6.090069104789375e-4
3.152206263481526,-0.09811516183044267
3.152206263481526,-0.09811516183044267
3.152517107540996,0.08881952988417119
3.152517107540996,0.08881952988417119
3.152806888027167,-0.09898118071121165
3.152806888027167,-0.09898118071121165
3.153,0.027222200251463935
3.1531422304122003,0.07660760619592366
3.1531422304122003,0.07660760619592366
3.1531485357874,0.07511027587046482
3.1531485357874,1.656570803959545
3.153443229281395,-1.4170114960010955
3.153443229281395,-1.4170114960010955
3.1537226007364376,1.2388171908543284
3.1537226007364376,1.2388171908543284
3.154,-0.8436664233237955
3.154103430051332,-1.3760029386193708
3.154103430051332,-1.3760029386193708
3.1542956648283655,0.7548670300435454
3.1542956648283655,0.7548670300435454
3.154715143891348,-1.2219087349373474
3.154715143891348,-1.2219087349373474
3.1549024287081293,0.7311530704514346
3.1549024287081293,0.7311530704514346
3.155,1.200022694472008
3.155331323118972,-1.005104154739131
3.155331323118972,-1.005104154739131
3.155479122780699,0.4668587284552643
3.155479122780699,0.4668587284552643
3.156,-0.3326536741968846
3.157,-0.613206263579107
3.158,0.6006908262691053
3.159,0.11955225048840476
3.16,-0.4519028632553943
3.161,0.11492070953905817
3.162,0.24885908641770413
3.163,-0.20623638157812124
3.164,-0.06347639709555869
3.165,0.15110993909143056
3.1652785976939093,-0.15869300592674124
3.1652785976939093,-0.15869300592674124
3.166,-0.10403671068688536
3.166399428079323,-0.05975430668157011
3.166399428079323,-0.05975430668157011
3.167,-0.05776473954747541
3.167071105053667,-0.1227218731124331
3.167071105053667,1.3457932913219828
3.167442469519276,-0.8377788495890188
3.167442469519276,-0.8377788495890188
3.168,-1.2023036214441634
3.1684144590074514,0.549035652929631
3.1684144590074514,0.549035652929631
3.169,0.8541424453864327
3.1692868624178487,-0.8855616325065381
3.1692868624178487,-0.8855616325065381
3.17,-0.41767201204466553
3.171,0.026350658173876412
3.172,0.2570579033081922
3.173,-0.3798715599306282
3.174,0.3653295824449775
3.175,-0.2595698291487551
3.176,0.11878209253822529
3.177,-0.002059920574223162
3.178,-0.08175070064632056
3.179,0.10584214572810763
3.18,-0.11194527224248663
3.1805267644774426,-0.03828764142835772
3.1805267644774426,-0.03828764142835772
3.180993671181041,0.07969394834324961
3.180993671181041,1.6614984620349809
3.181,1.6840274831930238
3.182,-1.0889832428870816
3.183,-0.1240186965055678
3.1837673882617583,-0.9669665274258515
3.1837673882617583,-0.9669665274258515
3.184,0.9540239673532603
3.18488821831736,-0.7998288566942282
3.18488821831736,-0.7998288566942282
3.185,-0.5338949700332334
3.186,-0.345804215095618
3.187,0.5352368919279935
3.188,3.879474684966022e-5
3.189,-0.36546660193392855
3.189466225771859,-0.0037015455666747077
3.189466225771859,-0.0037015455666747077
3.19,0.16571379171304912
3.1907801126889686,-0.2651316456598043
3.1907801126889686,-0.2651316456598043
3.191,0.14749442770880844
3.192,-0.2014791148321745
3.193,0.010621943194815131
3.194,0.08093936981348637
3.1949162342478274,-0.12235020967569532
3.1949162342478274,1.3461318318921203
3.195,0.5091643042729556
3.195402250528327,0.5613721368343202
3.195402250528327,0.5613721368343202
3.196,0.06550650513275885
3.197,-0.4485005384517008
3.198,0.647824736986816
3.199,-0.6365913165594884
3.2,0.4741226665345285
3.2000008725440177,0.4720656726709677
3.2000008725440177,0.4720656726709677
3.201,-0.24479022086485988
3.202,0.029156300736988033
3.2022561735635735,-0.22464961114618642
3.2022561735635735,-0.22464961114618642
3.203,0.12920011343534324
3.203377003313781,-0.2332795546742759
3.203377003313781,-0.2332795546742759
3.204,-0.20132345625036932
3.205,0.1915380043502856
3.206,-0.14551491975827463
3.207,0.07143431325098992
3.208,-0.023201161305761997
3.2083591033170626,-0.024802477449644145
3.2083591033170626,-0.024802477449644145
3.208838794523027,0.07927692125186736
3.208838794523027,1.6610605274081853
3.209,0.35210112903472673
3.21,0.9101731401979483
3.2105179858799366,-0.18214063152776638
3.2105179858799366,-0.18214063152776638
3.211,-1.097343021076286
3.211390388739977,0.4271359445337033
3.211390388739977,0.4271359445337033
3.212,0.2157660572450767
3.213,0.6489125934400147
3.214,-0.49633455578643204
3.215,-0.19526462738355588
3.216,0.4324727391498696
3.217,-0.07825413235197302
3.218,-0.24580912508459848
3.219,0.1668613563648209
3.22,0.05364068818746737
3.2207449540190356,0.14452121513319827
3.2207449540190356,0.14452121513319827
3.221,-0.16894798695746166
3.2218657834860767,0.08950675963121657
3.2218657834860767,0.08950675963121657
3.222,0.05882603130503772
3.222761352064821,-0.11704388178244829
3.222761352064821,1.3510800157183995
3.223,-1.2621683092856792
3.223246157623218,0.5537112309360733
3.223246157623218,0.5537112309360733
3.224,1.132610805027258
3.225,-0.8096667685690508
3.226,0.4179583179647763
3.227,-0.03668831689074753
3.228,-0.23145218230198444
3.229,0.3608565090759502
3.23,-0.3528917320404986
3.231,0.25453782046199536
3.231569739901863,0.24913790535758507
3.231569739901863,0.24913790535758507
3.232,-0.12456128992598334
3.2328836260598055,0.1746360465409936
3.2328836260598055,0.1746360465409936
3.233,0.005692813700502952
3.234,0.06441233240615207
3.235,-0.10541694770154592
3.236,0.09636289154042454
3.236204217902536,-0.02686224073410448
3.236204217902536,-0.02686224073410448
3.2366839071232745,0.07920735057640871
3.2366839071232745,1.6609955831338798
3.237,-1.5207171842899618
3.238,0.9781752425176022
3.239,0.2795651884495617
3.2392337299683645,0.48513235417276507
3.2392337299683645,0.48513235417276507
3.24,-0.9054495434216091
3.2403545591731677,0.774275807103608
3.2403545591731677,0.774275807103608
3.241,0.391112215997101
3.242,0.4229626948021375
3.243,-0.46202677785262847
3.244,-0.07463127671818978
3.245,0.33713833151629424
3.246,-0.10860790648815671
3.247,-0.1800719136555164
3.248,0.160220106893174
3.249,-0.019908283624865963
3.25,-0.1218609506426056
3.2506064597393065,-0.12167526986924992
3.2506064597393065,1.3467860465054353
3.251,-0.5931939203653823
3.2510912668177316,0.5475111441218112
3.2510912668177316,0.5475111441218112
3.252,0.045014934733920264
3.2526214883274727,0.18605777871859158
3.2526214883274727,0.18605777871859158
3.253,0.3850835001854471
3.253493890724909,-0.682924529198871
3.253493890724909,-0.682924529198871
3.254,-0.5959236202397562
3.255,0.5974060010675759
3.256,-0.46571240779619844
3.257,0.2616222834486194
3.257722501741891,-0.08761834369070776
3.257722501741891,-0.08761834369070776
3.258,-0.053406526643414456
3.2588433307035176,0.2605057925770107
3.2588433307035176,0.2605057925770107
3.259,-0.10220932947341597
3.26,0.1732451491565901
3.261,-0.18108613966913467
3.262,0.13310688265298126
3.263,-0.08398873057162853
3.264,0.02190404805059898
3.264049323520151,-0.02554237270034798
3.264049323520151,-0.02554237270034798
3.2645290101459263,0.07791534102268405
3.2645290101459263,1.6596171808088855
3.265,-0.18123609812799457
3.266,-0.9357358965544762
3.267,1.0350845147679273
3.268,-0.0628042745108135
3.269,-0.6624364427975233
3.27,0.39431950449897746
3.271,0.2698461284651059
3.272,-0.3888380436964027
3.273,-0.008784388995377618
3.2736732316362556,-0.23289375905758786
3.2736732316362556,-0.23289375905758786
3.274,0.25712643067978375
3.2749871171557707,-0.16716440742483302
3.2749871171557707,-0.16716440742483302
3.275,-0.14403966772998644
3.276,-0.09594742306096127
3.2762112696445893,-0.07787024679894472
3.2762112696445893,-0.07787024679894472
3.277,0.12822133967640603
3.2773320983809437,-0.1469389132122485
3.2773320983809437,-0.1469389132122485
3.278,-0.0904332374460296
3.2784515583685296,-0.12185501788904685
3.2784515583685296,1.3466268350933555
3.2789363629114012,0.5492456736864395
3.2789363629114012,0.5492456736864395
3.279,1.117287072058235
3.28,-1.0413263645848974
3.281,0.7970922187664538
3.282,-0.4376325042259385
3.283,0.09089279836239536
3.284,0.17752786466630963
3.285,-0.30914486444372974
3.286,0.316737605290382
3.287,-0.2403756804176322
3.288,0.12462836077364553
3.289,-0.02432975271285437
3.29,-0.05495751404368576
3.291,0.08317155376590718
3.291894419110408,-0.023797762777819864
3.291894419110408,-0.023797762777819864
3.292,-0.09737246154871115
3.2923741046252277,0.08020691134683589
3.2923741046252277,1.662084757119794
3.293,1.531304782767685
3.294,-0.8622526848761811
3.2947000339587182,0.39479816556874336
3.2947000339587182,0.39479816556874336
3.2947249702350465,0.6626415479223728
3.2947249702350465,0.6626415479223728
3.295,-0.3589982562510602
3.2955973722432184,-0.37233543965124594
3.2955973722432184,-0.37233543965124594
3.2958208624861007,-0.33147735283362845
3.2958208624861007,-0.33147735283362845
3.296,0.8912748096285609
3.297,-0.25155198934127904
3.298,-0.48110665619191484
3.299,0.4038684250322026
3.3,0.14237887511169522
3.30000105306937,0.146623214184589
3.30000105306937,0.146623214184589
3.301,-0.33488228853225843
3.302,0.05668955764251382
3.303,0.17578907323592718
3.304,-0.1589221528377765
3.305,-0.03021185102668522
3.306,0.06808935500256574
3.3062966489271184,-0.1240378537637854
3.3062966489271184,1.3445983392753909
3.3067615126721406,0.31055705214912865
3.3067615126721406,0.31055705214912865
3.307,0.6321768677360832
3.308,-0.08478243882568287
3.309,-0.3115013573092221
3.31,0.5399712046723165
3.311,-0.5644844165197794
3.312,0.4477702561927193
3.313,-0.25200000862454003
3.313188794928384,0.3472614451991327
3.313188794928384,0.3472614451991327
3.314,0.04847144790823077
3.314309623262108,-0.06688152078443424
3.314309623262108,-0.06688152078443424
3.315,0.09737892811559648
3.3157767045277504,0.2090177445502073
3.3157767045277504,0.2090177445502073
3.3159046938458134,0.004042694625107479
3.3159046938458134,0.004042694625107479
3.316,-0.17273256373581417
3.3164805938244797,0.10697760831001232
3.3164805938244797,0.10697760831001232
3.3165264463107906,0.026413310138219015
3.3165264463107906,0.026413310138219015
3.317,0.17195017180331412
3.317090589509789,0.1263587594700471
3.317090589509789,0.1263587594700471
3.3171708368319224,0.006132501658948908
3.3171708368319224,0.006132501658948908
3.3175238143183465,0.04738403905790195
3.3175238143183465,0.04738403905790195
3.3177639855446035,0.05724447668679905
3.3177639855446035,0.05724447668679905
3.318,-0.14028373628583324
3.3181733300660277,0.055585232795290596
3.3181733300660277,0.055585232795290596
3.3183926040565157,0.054842991563515964
3.3183926040565157,0.054842991563515964
3.3187566936155575,-0.008612280535853778
3.3187566936155575,-0.008612280535853778
3.319,0.07736793379843981
3.3190569691394347,0.021043581967180203
3.3190569691394347,0.021043581967180203
3.3193397894036805,-0.05988518181190272
3.3193397894036805,-0.05988518181190272
3.319665644479466,0.04308110286479294
3.319665644479466,0.04308110286479294
3.3199789138595026,-0.056023127133977946
3.3199789138595026,-0.056023127133977946
3.32,-0.03845637851810901
3.3202191914798025,0.07880804545481179
3.3202191914798025,1.6605976912774036
3.320259512917976,1.685979304951764
3.320259512917976,1.685979304951764
3.3206025072252445,-1.3069959741746517
3.3206025072252445,-1.3069959741746517
3.3209224931099333,1.1802214286687498
3.3209224931099333,1.1802214286687498
3.321,0.15304824921006233
3.321162683836779,-1.397967938581656
3.321162683836779,-1.397967938581656
3.3215835179074378,0.390588188429179
3.3215835179074378,0.390588188429179
3.321730472186485,-1.2064601869692333
3.321730472186485,-1.2064601869692333
3.322,0.973138683919907
3.3221684256357715,0.528534336099417
3.3221684256357715,0.528534336099417
3.3223529686698985,-1.1211315231183319
3.3223529686698985,-1.1211315231183319
3.3227949618467933,0.16248407589734265
3.3227949618467933,0.16248407589734265
3.3229100901158732,-0.8882216491703427
3.3229100901158732,-0.8882216491703427
3.323,-0.8873975084777013
3.324,-0.07204667160613809
3.325,0.6816245862099639
3.326,-0.2941620769821156
3.327,-0.31598590262706105
3.328,0.3333506237619963
3.329,0.05851386864194125
3.33,-0.25810608558137166
3.331,0.08774837036617789
3.3316775528285216,-0.07882641000615226
3.3316775528285216,-0.07882641000615226
3.332,0.09253484688309466
3.3327983809825215,0.03458776813682618
3.3327983809825215,0.03458776813682618
3.333,-0.152026152899445
3.334,0.019124930148909147
3.3341417322819176,-0.12243507273881105
3.3341417322819176,1.3461112355056795
3.334353015823191,-1.0680337399069075
3.334353015823191,-1.0680337399069075
3.3346170003941347,0.4350759389466172
3.3346170003941347,0.4350759389466172
3.334773260304573,1.1866613150191074
3.334773260304573,1.1866613150191074
3.335,-1.0236757163033674
3.336,1.011167518149418
3.3368284348521238,-0.186061564630557
3.3368284348521238,-0.186061564630557
3.337,-0.7849407621298319
3.3371557581170057,0.23636280602368664
3.3371557581170057,0.23636280602368664
3.33729665777579,0.7566166609625273
3.33729665777579,0.7566166609625273
3.3377008365324015,-0.3714805910902744
3.3377008365324015,-0.3714805910902744
3.337786083461112,0.2108937891198019
3.337786083461112,0.2108937891198019
3.3378359190902076,0.502969858469533
3.3378359190902076,0.502969858469533
3.337949635853533,0.6517263021134279
3.337949635853533,0.6517263021134279
3.338,0.4582317567783959
3.3381835348567703,-0.5650603092356294
3.3381835348567703,-0.5650603092356294
3.338351951567768,-0.20977277847716766
3.338351951567768,-0.20977277847716766
3.3384954938557767,0.5446690507839089
3.3384954938557767,0.5446690507839089
3.338562747796339,0.6034327975619334
3.338562747796339,0.6034327975619334
3.3388062546642048,-0.48688165511920334
3.3388062546642048,-0.48688165511920334
3.3389451330068285,-0.38172682753414094
3.3389451330068285,-0.38172682753414094
3.339,-0.11350673621503776
3.3391076639290778,0.4076859858923513
3.3391076639290778,0.4076859858923513
3.33924199402539,0.4136080325000129
3.33924199402539,0.4136080325000129
3.339416980374403,-0.3777864389711568
3.339416980374403,-0.3777864389711568
3.3395422843461895,-0.4450192689488508
3.3395422843461895,-0.4450192689488508
3.3397185397434415,0.29566925620221796
3.3397185397434415,0.29566925620221796
3.3399307670899727,0.16073837857627252
3.3399307670899727,0.16073837857627252
3.34,-0.14606614182927208
3.340045740470409,-0.3150342306398516
3.340045740470409,-0.3150342306398516
3.340199610288308,-0.3096792653917605
3.340199610288308,-0.3096792653917605
3.3402824175795356,0.012503525402052157
3.3402824175795356,0.012503525402052157
3.3405099590704386,0.3200079946681103
3.3405099590704386,0.3200079946681103
3.3406962976439125,-0.3237920103076843
3.3406962976439125,-0.3237920103076843
3.341,0.28582034364187603
3.3411134587684175,0.3260630476723507
3.3411134587684175,0.3260630476723507
3.3412992500543144,-0.2358768357443391
3.3412992500543144,-0.2358768357443391
3.341542507572757,-0.006323405973993772
3.341542507572757,-0.006323405973993772
3.34161043341917,0.19918656534304624
3.34161043341917,0.19918656534304624
3.342,-0.3029386349215363
3.342098929220822,-0.2005992827297757
3.342098929220822,-0.2005992827297757
3.342273354640201,0.24394301234316307
3.342273354640201,0.24394301234316307
