"time","virtualBench_layout_v1.acc_x"
0,-0
0,-0
0,-0
5.050356284942133e-5,-0
5.050356284942133e-5,-0
5.2241807465039754e-5,-0
5.2241807465039754e-5,-0
5.650533876561014e-5,-0
5.650533876561014e-5,-0
6.671007921995163e-5,-0
6.671007921995163e-5,-0
1.953125e-4,-0
1.953125e-4,-0
3.90625e-4,-0
3.90625e-4,-0
5.859375e-4,-0
5.859375e-4,-0
7.8125e-4,-0
7.8125e-4,-0
9.765625e-4,-0
9.765625e-4,-0
0.001,-0
0.001171875,-0
0.001171875,-0
0.0013671875,-0
0.0013671875,-0
0.0015625,-0
0.0015625,-0
0.0017578125,-0
0.0017578125,-0
0.001953125,-0
0.001953125,-0
0.002,-0
0.0021484375,-0
0.0021484375,-0
0.00234375,-0
0.00234375,-0
0.0025390625,-0
0.0025390625,-0
0.002734375,-0
0.002734375,-0
0.0029296875,-0
0.0029296875,-0
0.003,-0
0.003125,-0
0.003125,-0
0.0033203125,-0
0.0033203125,-0
0.003515625,-0
0.003515625,-0
0.0037109375,-0
0.0037109375,-0
0.00390625,-0
0.00390625,-0
0.004,-0
0.0041015625,-0
0.0041015625,-0
0.004296875,-0
0.004296875,-0
0.0044921875,-0
0.0044921875,-0
0.0046875,-0
0.0046875,-0
0.0048828125,-0
0.0048828125,-0
0.005,-0
0.005078125,-0
0.005078125,-0
0.0052734375,-0
0.0052734375,-0
0.00546875,-0
0.00546875,-0
0.0056640625,-0
0.0056640625,-0
0.005859375,-0
0.005859375,-0
0.006,-0
0.0060546875,-0
0.0060546875,-0
0.00625,-0
0.00625,-0
0.0064453125,-0
0.0064453125,-0
0.006640625,-0
0.006640625,-0
0.0068359375,-0
0.0068359375,-0
0.007,-0
0.00703125,-0
0.00703125,-0
0.0072265625,-0
0.0072265625,-0
0.007421875,-0
0.007421875,-0
0.0076171875,-0
0.0076171875,-0
0.0078125,-0
0.0078125,-0
0.008,-0
0.0080078125,-0
0.0080078125,-0
0.008203125,-0
0.008203125,-0
0.0083984375,-0
0.0083984375,-0
0.00859375,-0
0.00859375,-0
0.0087890625,-0
0.0087890625,-0
0.008984375,-0
0.008984375,-0
0.009,-0
0.0091796875,-0
0.0091796875,-0
0.009375,-0
0.009375,-0
0.0095703125,-0
0.0095703125,-0
0.009765625,-0
0.009765625,-0
0.0099609375,-0
0.0099609375,-0
0.01,-0
0.01015625,-0
0.01015625,-0
0.0103515625,-0
0.0103515625,-0
0.010546875,-0
0.010546875,-0
0.0107421875,-0
0.0107421875,-0
0.0109375,-0
0.0109375,-0
0.011,-0
0.0111328125,-0
0.0111328125,-0
0.011328125,-0
0.011328125,-0
0.0115234375,-0
0.0115234375,-0
0.01171875,-0
0.01171875,-0
0.0119140625,-0
0.0119140625,-0
0.012,-0
0.012109375,-0
0.012109375,-0
0.0123046875,-0
0.0123046875,-0
0.0125,-0
0.0125,-0
0.0126953125,-0
0.0126953125,-0
0.012890625,-0
0.012890625,-0
0.013,-0
0.0130859375,-0
0.0130859375,-0
0.01328125,-0
0.01328125,-0
0.0134765625,-0
0.0134765625,-0
0.013671875,-0
0.013671875,-0
0.0138671875,-0
0.0138671875,-0
0.014,-0
0.0140625,-0
0.0140625,-0
0.0142578125,-0
0.0142578125,-0
0.014453125,-0
0.014453125,-0
0.0146484375,-0
0.0146484375,-0
0.01484375,-0
0.01484375,-0
0.015,-0
0.0150390625,-0
0.0150390625,-0
0.015234375,-0
0.015234375,-0
0.0154296875,-0
0.0154296875,-0
0.015625,-0
0.015625,-0
0.0158203125,-0
0.0158203125,-0
0.016,-0
0.016015625,-0
0.016015625,-0
0.0162109375,-0
0.0162109375,-0
0.01640625,-0
0.01640625,-0
0.0166015625,-0
0.0166015625,-0
0.016796875,-0
0.016796875,-0
0.0169921875,-0
0.0169921875,-0
0.017,-0
0.0171875,-0
0.0171875,-0
0.0173828125,-0
0.0173828125,-0
0.017578125,-0
0.017578125,-0
0.0177734375,-0
0.0177734375,-0
0.01796875,-0
0.01796875,-0
0.018,-0
0.0181640625,-0
0.0181640625,-0
0.018359375,-0
0.018359375,-0
0.0185546875,-0
0.0185546875,-0
0.01875,-0
0.01875,-0
0.0189453125,-0
0.0189453125,-0
0.019,-0
0.019140625,-0
0.019140625,-0
0.0193359375,-0
0.0193359375,-0
0.01953125,-0
0.01953125,-0
0.0197265625,-0
0.0197265625,-0
0.019921875,-0
0.019921875,-0
0.02,-0
0.0201171875,-0
0.0201171875,-0
0.020226302495608847,-0
0.020226302495608847,-0
0.020232477401330072,-0
0.020232477401330072,-0
0.020234828512851775,-0
0.020234828512851775,-0
0.020236347945594986,-0
0.020236347945594986,-0
0.020237679898868054,-0
0.020237679898868054,-0
0.020239189827927793,-0
0.020239189827927793,-0
0.020241481153603514,-0
0.020241481153603514,-0
0.020247088759602915,-0
0.020247088759602915,-0
0.0203125,-0
0.0203125,-0
0.02043171924225696,-0
0.02043171924225696,-0
0.0205078125,0.005890526587481824
0.0205078125,0.005890526587481824
0.020703125,0.05644187792485862
0.020703125,0.05644187792485862
0.0208984375,0.04008894672219261
0.0208984375,0.04008894672219261
0.021,-0.0033976883895708923
0.02109375,-0.0452637899483423
0.02109375,-0.0452637899483423
0.021223007000108325,-0.07508493367607089
0.021223007000108325,-0.07508493367607089
0.0212890625,-0.07102586387640719
0.0212890625,-0.07102586387640719
0.021484375,0.005284532390157356
0.021484375,0.005284532390157356
0.0216796875,0.07464549445719822
0.0216796875,0.07464549445719822
0.021875,0.018362867374219393
0.021875,0.018362867374219393
0.022,-0.05440483724316307
0.0220703125,-0.08594749963459267
0.0220703125,-0.08594749963459267
0.022265625,-0.08832260926250435
0.022265625,-0.08832260926250435
0.0224609375,0.014445680319433
0.0224609375,0.014445680319433
0.02265625,0.09989454653052107
0.02265625,0.09989454653052107
0.0228515625,0.052106857150972685
0.0228515625,0.052106857150972685
0.023,-0.03731830462133977
0.023046875,-0.0601851962061051
0.023046875,-0.0601851962061051
0.0232421875,-0.06828053541874725
0.0232421875,-0.06828053541874725
0.0234375,0.04979059374262955
0.0234375,0.04979059374262955
0.0236328125,0.11907156794425557
0.0236328125,0.11907156794425557
0.023828125,0.016452538840288154
0.023828125,0.016452538840288154
0.024,-0.09960388010294396
0.0240234375,-0.10786312580428556
0.0240234375,-0.10786312580428556
0.02421875,-0.07465143757717102
0.02421875,-0.07465143757717102
0.0244140625,0.05055779176389708
0.0244140625,0.05055779176389708
0.024609375,0.06831474443478489
0.024609375,0.06831474443478489
0.0248046875,-0.04161612139350997
0.0248046875,-0.04161612139350997
0.025,-0.10012185168800997
0.025,-0.10012185168800997
0.0251953125,-0.01750771775635072
0.0251953125,-0.01750771775635072
0.025390625,0.08631064340734175
0.025390625,0.08631064340734175
0.0255859375,0.06410766622591871
0.0255859375,0.06410766622591871
0.02578125,-0.02893350991804527
0.02578125,-0.02893350991804527
0.0259765625,-0.040037781688397264
0.0259765625,-0.040037781688397264
0.026,-0.03351587171551296
0.026171875,0.03352051465745157
0.026171875,0.03352051465745157
0.0263671875,0.05606742575550589
0.0263671875,0.05606742575550589
0.0265625,-0.00996085395191481
0.0265625,-0.00996085395191481
0.0267578125,-0.0550834899685837
0.0267578125,-0.0550834899685837
0.026953125,-0.023599274569097384
0.026953125,-0.023599274569097384
0.027,-0.011631704439925956
0.0271484375,0.011717179710924112
0.0271484375,0.011717179710924112
0.02734375,-0.006599176095795432
0.02734375,-0.006599176095795432
0.0275390625,-0.028482504579555992
0.0275390625,-0.028482504579555992
0.027734375,-0.004249711646260063
0.027734375,-0.004249711646260063
0.0279296875,0.02713669437154794
0.0279296875,0.02713669437154794
0.028,0.028275089935968917
0.028125,0.0168837742395387
0.028125,0.0168837742395387
0.0283203125,-0.0014692103137146154
0.0283203125,-0.0014692103137146154
0.028515625,0.015603233120268893
0.028515625,0.015603233120268893
0.0287109375,0.03138741256106205
0.0287109375,0.03138741256106205
0.02890625,5.832886958039643e-4
0.02890625,5.832886958039643e-4
0.029,-0.020317733414244574
0.0291015625,-0.03343605668688767
0.0291015625,-0.03343605668688767
0.029296875,-0.01580879349511506
0.029296875,-0.01580879349511506
0.0294921875,0.01465305840044337
0.0294921875,0.01465305840044337
0.0296875,-0.0043597875261984775
0.0296875,-0.0043597875261984775
0.0298828125,-0.04022066817160883
0.0298828125,-0.04022066817160883
0.03,-0.03724589817105851
0.030078125,-0.02226433826605414
0.030078125,-0.02226433826605414
0.0302734375,0.028698973088370057
0.0302734375,0.028698973088370057
0.03046875,0.033371641124534474
0.03046875,0.033371641124534474
0.0306640625,-0.0066750781924190955
0.0306640625,-0.0066750781924190955
0.030859375,-0.01398909678791721
0.030859375,-0.01398909678791721
0.031,0.012240356286351096
0.0310546875,0.023400100382295452
0.0310546875,0.023400100382295452
0.03125,0.03324327344487746
0.03125,0.03324327344487746
0.0314453125,-0.007221514433161269
0.0314453125,-0.007221514433161269
0.031640625,-0.032557761412377005
0.031640625,-0.032557761412377005
0.0318359375,-0.010057268835233904
0.0318359375,-0.010057268835233904
0.032,0.009090071190445873
0.03203125,0.00963680378499785
0.03203125,0.00963680378499785
0.0322265625,-0.00807812681465582
0.0322265625,-0.00807812681465582
0.032421875,-0.024097964564105748
0.032421875,-0.024097964564105748
0.0326171875,-0.005562310864268942
0.0326171875,-0.005562310864268942
0.0328125,0.01715274516362493
0.0328125,0.01715274516362493
0.033,0.01306651071909927
0.0330078125,0.012497895277248733
0.0330078125,0.012497895277248733
0.033203125,0.0015280155032929774
0.033203125,0.0015280155032929774
0.0333984375,0.007893541844637142
0.0333984375,0.007893541844637142
0.03359375,0.013459972305453982
0.03359375,0.013459972305453982
0.0337890625,0.0016282849754808704
0.0337890625,0.0016282849754808704
0.033984375,-0.008422022708139923
0.033984375,-0.008422022708139923
0.034,-0.00849843679005792
0.0341796875,-0.003875151493058976
0.0341796875,-0.003875151493058976
0.034375,-0.003255546998799333
0.034375,-0.003255546998799333
0.0345703125,-0.013951741428668528
0.0345703125,-0.013951741428668528
0.034765625,-0.014049588921982298
0.034765625,-0.014049588921982298
0.0349609375,0.0021982545838626077
0.0349609375,0.0021982545838626077
0.035,0.005218132245749366
0.03515625,0.009328070130738247
0.03515625,0.009328070130738247
0.0353515625,-5.970164405224715e-4
0.0353515625,-5.970164405224715e-4
0.035546875,-0.002001945006896086
0.035546875,-0.002001945006896086
0.0357421875,0.012980616930685362
0.0357421875,0.012980616930685362
0.0359375,0.016951235289773756
0.0359375,0.016951235289773756
0.036,0.012886432241106138
0.0361328125,-1.7731006237911573e-4
0.0361328125,-1.7731006237911573e-4
0.036328125,-0.010711569475939542
0.036328125,-0.010711569475939542
0.0365234375,-0.0013148761656433944
0.0365234375,-0.0013148761656433944
0.03671875,0.003926044359218173
0.03671875,0.003926044359218173
0.0369140625,-0.008206586765149348
0.0369140625,-0.008206586765149348
0.037,-0.013666648944998971
0.037109375,-0.015529720885422038
0.037109375,-0.015529720885422038
0.0373046875,-0.0040817944900520126
0.0373046875,-0.0040817944900520126
0.0375,0.006961266060444032
0.0375,0.006961266060444032
0.0376953125,0.0030589212051204268
0.0376953125,0.0030589212051204268
0.037890625,-0.0013528557914757738
0.037890625,-0.0013528557914757738
0.038,0.001418318275231617
0.0380859375,0.005274089539382576
0.0380859375,0.005274089539382576
0.03828125,0.010357809166445742
0.03828125,0.010357809166445742
0.0384765625,0.004329474551953344
0.0384765625,0.004329474551953344
0.038671875,-0.002090248005971282
0.038671875,-0.002090248005971282
0.0388671875,-0.0013534286963780423
0.0388671875,-0.0013534286963780423
0.039,-8.574893455557536e-4
0.0390625,-0.0015770992086709679
0.0390625,-0.0015770992086709679
0.0392578125,-0.00618122050165941
0.0392578125,-0.00618122050165941
0.039453125,-0.00675652395997052
0.039453125,-0.00675652395997052
0.0396484375,-0.002033599084560092
0.0396484375,-0.002033599084560092
0.03984375,-4.772372487518578e-4
0.03984375,-4.772372487518578e-4
0.04,-0.0017803742910787457
0.0400390625,-0.0018495832362047243
0.0400390625,-0.0018495832362047243
0.040234375,0.0017462185188138052
0.040234375,0.0017462185188138052
0.0404296875,0.0074210385375766685
0.0404296875,0.0074210385375766685
0.040625,0.005740829025972283
0.040625,0.005740829025972283
0.0408203125,6.1622499705552e-5
0.0408203125,6.1622499705552e-5
0.041,1.0706355143751123e-4
0.041015625,3.779240429835351e-4
0.041015625,3.779240429835351e-4
0.0412109375,0.0033644734082442507
0.0412109375,0.0033644734082442507
0.04140625,-4.949416929484751e-4
0.04140625,-4.949416929484751e-4
0.0416015625,-0.0069593096482926525
0.0416015625,-0.0069593096482926525
0.041796875,-0.005723614936365223
0.041796875,-0.005723614936365223
0.0419921875,-1.7606256947588772e-4
0.0419921875,-1.7606256947588772e-4
0.042,-3.190921094013699e-5
0.0421875,-1.0680772308799269e-4
0.0421875,-1.0680772308799269e-4
0.0423828125,-0.0029100904908435365
0.0423828125,-0.0029100904908435365
0.042578125,-2.0063332166354864e-4
0.042578125,-2.0063332166354864e-4
0.0427734375,0.005073544754209652
0.0427734375,0.005073544754209652
0.04296875,0.004836880463750554
0.04296875,0.004836880463750554
0.043,0.0042743952618545245
0.0431640625,0.001198880093911156
0.0431640625,0.001198880093911156
0.043359375,7.934089548269074e-4
0.043359375,7.934089548269074e-4
0.0435546875,0.0018704612724808473
0.0435546875,0.0018704612724808473
0.04375,-3.0915276935764013e-4
0.04375,-3.0915276935764013e-4
0.0439453125,-0.003293450117617544
0.0439453125,-0.003293450117617544
0.044,-0.003574442873232539
0.044140625,-0.0030668911050589776
0.044140625,-0.0030668911050589776
0.0443359375,-0.0017889832881754636
0.0443359375,-0.0017889832881754636
0.04453125,-0.0020045804404416057
0.04453125,-0.0020045804404416057
0.0447265625,-0.0013528876034203663
0.0447265625,-0.0013528876034203663
0.044921875,0.001226652224853672
0.044921875,0.001226652224853672
0.045,0.0020538902349974547
0.0451171875,0.0024333816151458493
0.0451171875,0.0024333816151458493
0.0453125,0.0015151390091992234
0.0453125,0.0015151390091992234
0.0455078125,0.0017029584262092945
0.0455078125,0.0017029584262092945
0.045703125,0.0028489855612588433
0.045703125,0.0028489855612588433
0.0458984375,0.0014597308330479564
0.0458984375,0.0014597308330479564
0.046,-1.9527550209971767e-4
0.04609375,-0.0015399499281179008
0.04609375,-0.0015399499281179008
0.0462890625,-0.002002619185451887
0.0462890625,-0.002002619185451887
0.046484375,-6.566163097214139e-4
0.046484375,-6.566163097214139e-4
0.0466796875,-0.0012860369315651904
0.0466796875,-0.0012860369315651904
0.046875,-0.0027757026491050107
0.046875,-0.0027757026491050107
0.047,-0.00230203287248118
0.0470703125,-0.001451252499851799
0.0470703125,-0.001451252499851799
0.047265625,0.00129236355077135
0.047265625,0.00129236355077135
0.0474609375,0.0016650295962440942
0.0474609375,0.0016650295962440942
0.04765625,6.419036028568609e-4
0.04765625,6.419036028568609e-4
0.0478515625,0.0012518582350139335
0.0478515625,0.0012518582350139335
0.048,0.0021987888852911947
0.048046875,0.0023075660541083953
0.048046875,0.0023075660541083953
0.0482421875,0.0012426560702147177
0.0482421875,0.0012426560702147177
0.0484375,-6.090511901569867e-4
0.0484375,-6.090511901569867e-4
0.0486328125,-9.427638617279244e-4
0.0486328125,-9.427638617279244e-4
0.048828125,-7.280034231026133e-4
0.048828125,-7.280034231026133e-4
0.049,-0.0012569114618509597
0.0490234375,-0.0013518820190205616
0.0490234375,-0.0013518820190205616
0.04921875,-0.0016194061349074917
0.04921875,-0.0016194061349074917
0.0494140625,-6.687093383796749e-4
0.0494140625,-6.687093383796749e-4
0.049609375,1.7374489873443755e-4
0.049609375,1.7374489873443755e-4
0.0498046875,3.511323142783851e-4
0.0498046875,3.511323142783851e-4
0.05,9.060571287580477e-4
0.05,9.060571287580477e-4
0.0501953125,0.001629957704288823
0.0501953125,0.001629957704288823
0.050390625,0.0012619271969085133
0.050390625,0.0012619271969085133
0.0505859375,3.4326087800673477e-4
0.0505859375,3.4326087800673477e-4
0.05078125,2.0286481594208872e-4
0.05078125,2.0286481594208872e-4
0.0509765625,1.746423388539059e-4
0.0509765625,1.746423388539059e-4
0.051,1.0778368324861065e-4
0.051171875,-7.812875942737885e-4
0.051171875,-7.812875942737885e-4
0.0513671875,-0.001525905514974335
0.0513671875,-0.001525905514974335
0.0515625,-9.076320561726137e-4
0.0515625,-9.076320561726137e-4
0.0517578125,-1.2312554796729824e-4
0.0517578125,-1.2312554796729824e-4
0.051953125,-2.571896677995844e-4
0.051953125,-2.571896677995844e-4
0.052,-3.242361945989952e-4
0.0521484375,-2.0628933217511913e-4
0.0521484375,-2.0628933217511913e-4
0.05234375,7.578163518019709e-4
0.05234375,7.578163518019709e-4
0.0525390625,0.0013309133119770722
0.0525390625,0.0013309133119770722
0.052734375,7.954420874188711e-4
0.052734375,7.954420874188711e-4
0.0529296875,3.03535047444653e-4
0.0529296875,3.03535047444653e-4
0.053,3.040668218948356e-4
0.053125,3.961528997552255e-4
0.053125,3.961528997552255e-4
0.0533203125,1.5471211903476945e-4
0.0533203125,1.5471211903476945e-4
0.053515625,-5.794014259289659e-4
0.053515625,-5.794014259289659e-4
0.0537109375,-8.562456923720957e-4
0.0537109375,-8.562456923720957e-4
0.05390625,-5.758742798975397e-4
0.05390625,-5.758742798975397e-4
0.054,-4.6975002362817375e-4
0.0541015625,-4.359795614538031e-4
0.0541015625,-4.359795614538031e-4
0.054296875,-3.514457321721898e-4
0.054296875,-3.514457321721898e-4
0.0544921875,1.0400190687147315e-4
0.0544921875,1.0400190687147315e-4
0.0546875,5.361858325234337e-4
0.0546875,5.361858325234337e-4
0.0548828125,5.476211555548866e-4
0.0548828125,5.476211555548866e-4
0.055,5.118132743208159e-4
0.055078125,5.33912281238974e-4
0.055078125,5.33912281238974e-4
0.0552734375,6.42224148550391e-4
0.0552734375,6.42224148550391e-4
0.05546875,3.802862023510878e-4
0.05546875,3.802862023510878e-4
0.0556640625,-1.725892093958764e-4
0.0556640625,-1.725892093958764e-4
0.055859375,-3.584300075957503e-4
0.055859375,-3.584300075957503e-4
0.056,-2.7821926482107795e-4
0.0560546875,-2.629857585227102e-4
0.0560546875,-2.629857585227102e-4
0.05625,-4.373766142461849e-4
0.05625,-4.373766142461849e-4
0.0564453125,-6.144499097217454e-4
0.0564453125,-6.144499097217454e-4
0.056640625,-2.648575295110117e-4
0.056640625,-2.648575295110117e-4
0.0568359375,2.1335038568587317e-4
0.0568359375,2.1335038568587317e-4
0.057,2.788248558567852e-4
0.05703125,2.632238109933349e-4
0.05703125,2.632238109933349e-4
0.0572265625,2.2205701245697762e-4
0.0572265625,2.2205701245697762e-4
0.057421875,4.5551058515989895e-4
0.057421875,4.5551058515989895e-4
0.0576171875,5.436889444504073e-4
0.0576171875,5.436889444504073e-4
0.0578125,2.153083024304253e-4
0.0578125,2.153083024304253e-4
0.058,-7.884021162767041e-5
0.0580078125,-8.488299316819492e-5
0.0580078125,-8.488299316819492e-5
0.058203125,-1.2637787669679545e-4
0.058203125,-1.2637787669679545e-4
0.0583984375,-2.2272183530229472e-4
0.0583984375,-2.2272183530229472e-4
0.05859375,-4.0499051695931654e-4
0.05859375,-4.0499051695931654e-4
0.0587890625,-3.625563028253759e-4
0.0587890625,-3.625563028253759e-4
0.058984375,-1.5019268866192648e-4
0.058984375,-1.5019268866192648e-4
0.059,-1.3556462812738812e-4
0.0591796875,-2.775650110370398e-5
0.0591796875,-2.775650110370398e-5
0.059375,8.387057799927322e-5
0.059375,8.387057799927322e-5
0.0595703125,2.803910956855893e-4
0.0595703125,2.803910956855893e-4
0.059765625,3.474593454421415e-4
0.059765625,3.474593454421415e-4
0.0599609375,2.2682033458976125e-4
0.0599609375,2.2682033458976125e-4
0.06,2.0193282161298787e-4
0.06015625,1.5136034828550082e-4
0.06015625,1.5136034828550082e-4
0.0603515625,1.1342643482467607e-4
0.0603515625,1.1342643482467607e-4
0.060546875,-8.203680088703091e-5
0.060546875,-8.203680088703091e-5
0.0607421875,-2.8946519126127335e-4
0.0607421875,-2.8946519126127335e-4
0.0609375,-2.6398903316357525e-4
0.0609375,-2.6398903316357525e-4
0.061,-2.2419565727113677e-4
0.0611328125,-1.631038658992945e-4
0.0611328125,-1.631038658992945e-4
0.061328125,-1.814478639540762e-4
0.061328125,-1.814478639540762e-4
0.0615234375,-1.3686094671902516e-4
0.0615234375,-1.3686094671902516e-4
0.06171875,8.0507347833908e-5
0.06171875,8.0507347833908e-5
0.0619140625,2.1920172026060336e-4
0.0619140625,2.1920172026060336e-4
0.062,2.1103028874880359e-4
0.062109375,1.69397212132133e-4
0.062109375,1.69397212132133e-4
0.0623046875,1.3745422943700625e-4
0.0623046875,1.3745422943700625e-4
0.0625,1.6185910461791186e-4
0.0625,1.6185910461791186e-4
0.0626953125,6.920178631655838e-5
0.0626953125,6.920178631655838e-5
0.062890625,-9.919078202103027e-5
0.062890625,-9.919078202103027e-5
0.063,-1.5249782793674838e-4
0.0630859375,-1.6562159159208556e-4
0.0630859375,-1.6562159159208556e-4
0.06328125,-1.648254982923869e-4
0.06328125,-1.648254982923869e-4
0.0634765625,-1.8978012521472798e-4
0.0634765625,-1.8978012521472798e-4
0.063671875,-1.6506467864085828e-4
0.063671875,-1.6506467864085828e-4
0.0638671875,-5.702191858938943e-5
0.0638671875,-5.702191858938943e-5
0.064,6.1804196411496815e-6
0.0640625,2.444446699897962e-5
0.0640625,2.444446699897962e-5
0.0642578125,6.160531422721993e-5
0.0642578125,6.160531422721993e-5
0.064453125,1.2187954988582272e-4
0.064453125,1.2187954988582272e-4
0.0646484375,1.4738021782911837e-4
0.0646484375,1.4738021782911837e-4
0.06484375,7.271480419090981e-5
0.06484375,7.271480419090981e-5
0.065,3.969599475767138e-6
0.0650390625,-6.598355095560615e-6
0.0650390625,-6.598355095560615e-6
0.065234375,-3.080055651946689e-5
0.065234375,-3.080055651946689e-5
0.0654296875,-8.665512727587532e-5
0.0654296875,-8.665512727587532e-5
0.065625,-1.7232845727183088e-4
0.065625,-1.7232845727183088e-4
0.0658203125,-1.6836888586538312e-4
0.0658203125,-1.6836888586538312e-4
0.066,-9.795571942844417e-5
0.066015625,-9.246779671104322e-5
0.066015625,-9.246779671104322e-5
0.0662109375,-5.920575440224174e-5
0.0662109375,-5.920575440224174e-5
0.06640625,-4.146916217809271e-5
0.06640625,-4.146916217809271e-5
0.0666015625,3.315730796144001e-5
0.0666015625,3.315730796144001e-5
0.066796875,9.343721442942043e-5
0.066796875,9.343721442942043e-5
0.0669921875,6.974899213862962e-5
0.0669921875,6.974899213862962e-5
0.067,6.778135463009205e-5
0.0671875,2.8959288253777027e-5
0.0671875,2.8959288253777027e-5
0.0673828125,1.3075365364018099e-5
0.0673828125,1.3075365364018099e-5
0.067578125,-3.0125648140200134e-5
0.067578125,-3.0125648140200134e-5
0.0677734375,-9.521669672504784e-5
0.0677734375,-9.521669672504784e-5
0.06796875,-1.1863048332699799e-4
0.06796875,-1.1863048332699799e-4
0.068,-1.1797596746110361e-4
0.0681640625,-1.0963778305123073e-4
0.0681640625,-1.0963778305123073e-4
0.068359375,-1.0335187714025085e-4
0.068359375,-1.0335187714025085e-4
0.0685546875,-7.459515750105061e-5
0.0685546875,-7.459515750105061e-5
0.06875,-1.9416804271282784e-5
0.06875,-1.9416804271282784e-5
0.0689453125,1.299553408759535e-5
0.0689453125,1.299553408759535e-5
0.069,1.5972111934825506e-5
0.069140625,2.1474781315616864e-5
0.069140625,2.1474781315616864e-5
0.0693359375,3.828246986528616e-5
0.0693359375,3.828246986528616e-5
0.06953125,3.660660706514274e-5
0.06953125,3.660660706514274e-5
0.0697265625,-8.859329975019481e-6
0.0697265625,-8.859329975019481e-6
0.069921875,-5.018310889762234e-5
0.069921875,-5.018310889762234e-5
0.07,-5.6499165128787165e-5
0.0701171875,-6.0709885228549254e-5
0.0701171875,-6.0709885228549254e-5
0.0703125,-7.925917422280104e-5
0.0703125,-7.925917422280104e-5
0.0705078125,-1.047225557651299e-4
0.0705078125,-1.047225557651299e-4
0.070703125,-9.041107679549909e-5
0.070703125,-9.041107679549909e-5
0.0708984375,-4.990806937457681e-5
0.0708984375,-4.990806937457681e-5
0.071,-3.60443581107206e-5
0.07109375,-2.9472367114036224e-5
0.07109375,-2.9472367114036224e-5
0.0712890625,-1.6554604189145117e-5
0.0712890625,-1.6554604189145117e-5
0.071484375,1.1044029837870006e-5
0.071484375,1.1044029837870006e-5
0.0716796875,2.385299175924893e-5
0.0716796875,2.385299175924893e-5
0.071875,5.511337872798894e-6
0.071875,5.511337872798894e-6
0.072,-9.051974634577409e-6
0.0720703125,-1.5206162901376663e-5
0.0720703125,-1.5206162901376663e-5
0.072265625,-2.991197522203559e-5
0.072265625,-2.991197522203559e-5
0.0724609375,-5.370909470525653e-5
0.0724609375,-5.370909470525653e-5
0.07265625,-7.367145830416977e-5
0.07265625,-7.367145830416977e-5
0.0728515625,-7.278398393550933e-5
0.0728515625,-7.278398393550933e-5
0.073,-6.649630252120176e-5
0.073046875,-6.482575864280582e-5
0.073046875,-6.482575864280582e-5
0.0732421875,-5.591156416057119e-5
0.0732421875,-5.591156416057119e-5
0.0734375,-3.346379271981781e-5
0.0734375,-3.346379271981781e-5
0.0736328125,-8.676598286461168e-6
0.0736328125,-8.676598286461168e-6
0.073828125,-1.6728063268744986e-6
0.073828125,-1.6728063268744986e-6
0.074,-1.721891050604496e-6
0.0740234375,-1.3980235070154556e-6
0.0740234375,-1.3980235070154556e-6
0.07421875,2.1573611736769305e-6
0.07421875,2.1573611736769305e-6
0.0744140625,-8.079847288539055e-6
0.0744140625,-8.079847288539055e-6
0.074609375,-3.256599708401087e-5
0.074609375,-3.256599708401087e-5
0.0748046875,-4.650696724126102e-5
0.0748046875,-4.650696724126102e-5
0.075,-4.8802724927465846e-5
0.075,-4.8802724927465846e-5
0.0751953125,-5.544133114704364e-5
0.0751953125,-5.544133114704364e-5
0.075390625,-5.7435340879680163e-5
0.075390625,-5.7435340879680163e-5
0.0755859375,-4.215601643325906e-5
0.0755859375,-4.215601643325906e-5
0.07578125,-2.4487761888486448e-5
0.07578125,-2.4487761888486448e-5
0.0759765625,-1.619750598344516e-5
0.0759765625,-1.619750598344516e-5
0.076,-1.541291342377349e-5
0.076171875,-7.842006483016473e-6
0.076171875,-7.842006483016473e-6
0.0763671875,4.206502369208387e-7
0.0763671875,4.206502369208387e-7
0.0765625,-2.8506929846960904e-6
0.0765625,-2.8506929846960904e-6
0.0767578125,-1.3421867748525385e-5
0.0767578125,-1.3421867748525385e-5
0.076953125,-2.16656211589894e-5
0.076953125,-2.16656211589894e-5
0.077,-2.3561543265909757e-5
0.0771484375,-3.094655725560669e-5
0.0771484375,-3.094655725560669e-5
0.07734375,-4.094552563232989e-5
0.07734375,-4.094552563232989e-5
0.0775390625,-4.232381792829143e-5
0.0775390625,-4.232381792829143e-5
0.077734375,-3.698797036147394e-5
0.077734375,-3.698797036147394e-5
0.0779296875,-3.232791403373625e-5
0.0779296875,-3.232791403373625e-5
0.078,-3.016508750330882e-5
0.078125,-2.407050732167182e-5
0.078125,-2.407050732167182e-5
0.0783203125,-1.0988994264743424e-5
0.0783203125,-1.0988994264743424e-5
0.078515625,-3.7184163941827997e-6
0.078515625,-3.7184163941827997e-6
0.0787109375,-4.256250271783557e-6
0.0787109375,-4.256250271783557e-6
0.07890625,-4.258328596629113e-6
0.07890625,-4.258328596629113e-6
0.079,-4.258394149414535e-6
0.0791015625,-5.9050037630181684e-6
0.0791015625,-5.9050037630181684e-6
0.079296875,-1.5044410221209947e-5
0.079296875,-1.5044410221209947e-5
0.0794921875,-2.4195499865764525e-5
0.0794921875,-2.4195499865764525e-5
0.0796875,-2.6443055953978556e-5
0.0796875,-2.6443055953978556e-5
0.0798828125,-2.702686144667732e-5
0.0798828125,-2.702686144667732e-5
0.08,-2.7786517155570234e-5
0.080078125,-2.7650658762673475e-5
0.080078125,-2.7650658762673475e-5
0.0802734375,-2.2541045869350906e-5
0.0802734375,-2.2541045869350906e-5
0.08046875,-1.3673576109485275e-5
0.08046875,-1.3673576109485275e-5
0.0806640625,-7.716502132576464e-6
0.0806640625,-7.716502132576464e-6
0.080859375,-3.602351629800049e-6
0.080859375,-3.602351629800049e-6
0.081,-7.363763845080751e-7
0.0810546875,4.688990562495832e-8
0.0810546875,4.688990562495832e-8
0.08125,-3.475979420963782e-7
0.08125,-3.475979420963782e-7
0.0814453125,-4.344725074212352e-6
0.0814453125,-4.344725074212352e-6
0.081640625,-8.237594825544203e-6
0.081640625,-8.237594825544203e-6
0.0818359375,-1.2372131147908583e-5
0.0818359375,-1.2372131147908583e-5
0.082,-1.6189136571004292e-5
0.08203125,-1.6759160917534377e-5
0.08203125,-1.6759160917534377e-5
0.0822265625,-1.773739744612146e-5
0.0822265625,-1.773739744612146e-5
0.082421875,-1.5166805441890752e-5
0.082421875,-1.5166805441890752e-5
0.0826171875,-1.2354504626777008e-5
0.0826171875,-1.2354504626777008e-5
0.0828125,-8.613716810546013e-6
0.0828125,-8.613716810546013e-6
0.083,-2.872877438164778e-6
0.0830078125,-2.629219148758688e-6
0.0830078125,-2.629219148758688e-6
0.083203125,1.7521513884510842e-6
0.083203125,1.7521513884510842e-6
0.0833984375,2.308953273466585e-6
0.0833984375,2.308953273466585e-6
0.08359375,2.0526914126517415e-6
0.08359375,2.0526914126517415e-6
0.0837890625,1.4605423111491156e-6
0.0837890625,1.4605423111491156e-6
0.083984375,-1.870283181493182e-6
0.083984375,-1.870283181493182e-6
0.084,-2.229746864840232e-6
0.0841796875,-5.9964333979922735e-6
0.0841796875,-5.9964333979922735e-6
0.084375,-7.605810146665837e-6
0.084375,-7.605810146665837e-6
0.0845703125,-7.699970082458707e-6
0.0845703125,-7.699970082458707e-6
0.084765625,-7.428658727576254e-6
0.084765625,-7.428658727576254e-6
0.0849609375,-5.259172475707841e-6
0.0849609375,-5.259172475707841e-6
0.085,-4.553715393040836e-6
0.08515625,-1.4107848598232664e-6
0.08515625,-1.4107848598232664e-6
0.0853515625,1.892249561014081e-6
0.0853515625,1.892249561014081e-6
0.085546875,4.237669657736198e-6
0.085546875,4.237669657736198e-6
0.0857421875,5.883165988068706e-6
0.0857421875,5.883165988068706e-6
0.0859375,5.901483499048954e-6
0.0859375,5.901483499048954e-6
0.086,5.52427772779196e-6
0.0861328125,4.373591005440991e-6
0.0861328125,4.373591005440991e-6
0.086328125,2.5756849588998154e-6
0.086328125,2.5756849588998154e-6
0.0865234375,8.008953506499772e-7
0.0865234375,8.008953506499772e-7
0.08671875,-1.0704690474871992e-6
0.08671875,-1.0704690474871992e-6
0.0869140625,-1.8161033804031668e-6
0.0869140625,-1.8161033804031668e-6
0.087,-1.5317354113697501e-6
0.087109375,-7.626920610070975e-7
0.087109375,-7.626920610070975e-7
0.0873046875,9.62666329762385e-7
0.0873046875,9.62666329762385e-7
0.0875,2.722600234372763e-6
0.0875,2.722600234372763e-6
0.0876953125,4.98577157415081e-6
0.0876953125,4.98577157415081e-6
0.087890625,7.192726825977491e-6
0.087890625,7.192726825977491e-6
0.088,7.879463408771992e-6
0.0880859375,8.071647543128613e-6
0.0880859375,8.071647543128613e-6
0.08828125,7.76740095237427e-6
0.08828125,7.76740095237427e-6
0.0884765625,7.037989812330725e-6
0.0884765625,7.037989812330725e-6
0.088671875,5.8800108077294855e-6
0.088671875,5.8800108077294855e-6
0.0888671875,4.353600990075757e-6
0.0888671875,4.353600990075757e-6
0.089,3.4712695871075283e-6
0.0890625,3.174506174458136e-6
0.0890625,3.174506174458136e-6
0.0892578125,2.8176293985215928e-6
0.0892578125,2.8176293985215928e-6
0.089453125,3.228349610195913e-6
0.089453125,3.228349610195913e-6
0.0896484375,4.221983481128566e-6
0.0896484375,4.221983481128566e-6
0.08984375,5.570695396805991e-6
0.08984375,5.570695396805991e-6
0.09,6.726871805529111e-6
0.0900390625,7.00595367714163e-6
0.0900390625,7.00595367714163e-6
0.090234375,8.18895125351271e-6
0.090234375,8.18895125351271e-6
0.0904296875,8.800342405052008e-6
0.0904296875,8.800342405052008e-6
0.090625,8.721146393081414e-6
0.090625,8.721146393081414e-6
0.0908203125,8.04133330450929e-6
0.0908203125,8.04133330450929e-6
0.091,7.15400228951113e-6
0.091015625,7.0748826377919904e-6
0.091015625,7.0748826377919904e-6
0.0912109375,6.128766461110935e-6
0.0912109375,6.128766461110935e-6
0.09140625,5.3301957476104e-6
0.09140625,5.3301957476104e-6
0.0916015625,4.851955660106766e-6
0.0916015625,4.851955660106766e-6
0.091796875,4.964592559886238e-6
0.091796875,4.964592559886238e-6
0.0919921875,5.627032976740498e-6
0.0919921875,5.627032976740498e-6
0.092,5.659100529159522e-6
0.0921875,6.4372809502055706e-6
0.0921875,6.4372809502055706e-6
0.0923828125,7.221538695978413e-6
0.0923828125,7.221538695978413e-6
0.092578125,7.918857980626637e-6
0.092578125,7.918857980626637e-6
0.0927734375,8.221157829058079e-6
0.0927734375,8.221157829058079e-6
0.09296875,8.02435595251283e-6
0.09296875,8.02435595251283e-6
0.093,7.965692052414042e-6
0.0931640625,7.5639118372883285e-6
0.0931640625,7.5639118372883285e-6
0.093359375,6.82104835270092e-6
0.093359375,6.82104835270092e-6
0.0935546875,5.944917633671221e-6
0.0935546875,5.944917633671221e-6
0.09375,5.296179632990894e-6
0.09375,5.296179632990894e-6
0.0939453125,4.994252262247034e-6
0.0939453125,4.994252262247034e-6
0.094,4.957211599654343e-6
0.094140625,4.923764747172266e-6
0.094140625,4.923764747172266e-6
0.0943359375,5.098137360021182e-6
0.0943359375,5.098137360021182e-6
0.09453125,5.562195538239001e-6
0.09453125,5.562195538239001e-6
0.0947265625,6.0294002588723306e-6
0.0947265625,6.0294002588723306e-6
0.094921875,6.291708535693941e-6
0.094921875,6.291708535693941e-6
0.095,6.342738561898598e-6
0.0951171875,6.3581452000860406e-6
0.0951171875,6.3581452000860406e-6
0.0953125,6.184508178852521e-6
0.0953125,6.184508178852521e-6
0.0955078125,5.6802189359606015e-6
0.0955078125,5.6802189359606015e-6
0.095703125,5.006583684935562e-6
0.095703125,5.006583684935562e-6
0.0958984375,4.427835813253234e-6
0.0958984375,4.427835813253234e-6
0.096,4.13641900368078e-6
0.09609375,3.8597585408362e-6
0.09609375,3.8597585408362e-6
0.0962890625,3.385908669856219e-6
0.0962890625,3.385908669856219e-6
0.096484375,3.2483448549058824e-6
0.096484375,3.2483448549058824e-6
0.0966796875,3.3640753961394765e-6
0.0966796875,3.3640753961394765e-6
0.096875,3.4346087657011193e-6
0.096875,3.4346087657011193e-6
0.097,3.4995487274147585e-6
0.0970703125,3.57039811613169e-6
0.0970703125,3.57039811613169e-6
0.097265625,3.759326383662165e-6
0.097265625,3.759326383662165e-6
0.0974609375,3.5951451078375385e-6
0.0974609375,3.5951451078375385e-6
0.09765625,3.2318990313973117e-6
0.09765625,3.2318990313973117e-6
0.0978515625,2.937559063942441e-6
0.0978515625,2.937559063942441e-6
0.098,2.5696185343704325e-6
0.098046875,2.4147809386809715e-6
0.098046875,2.4147809386809715e-6
0.0982421875,1.724578246958819e-6
0.0982421875,1.724578246958819e-6
0.0984375,1.2378341431029671e-6
0.0984375,1.2378341431029671e-6
0.0986328125,9.442152832106476e-7
0.0986328125,9.442152832106476e-7
0.098828125,6.945917724321404e-7
0.098828125,6.945917724321404e-7
0.099,5.451782820187212e-7
0.0990234375,5.330482585608198e-7
0.0990234375,5.330482585608198e-7
0.09921875,5.233690012762526e-7
0.09921875,5.233690012762526e-7
0.0994140625,5.407336843843424e-7
0.0994140625,5.407336843843424e-7
0.099609375,4.520884707148731e-7
0.099609375,4.520884707148731e-7
0.0998046875,3.0725771768547183e-7
0.0998046875,3.0725771768547183e-7
0.1,1.4482225169087926e-8
0.1,1.4482225169087926e-8
0.1001953125000009,-4.4370989235598124e-7
0.1001953125000009,-4.4370989235598124e-7
0.100390625,-8.739974112215165e-7
0.100390625,-8.739974112215165e-7
0.1005859375000009,-1.3178473607933228e-6
0.1005859375000009,-1.3178473607933228e-6
0.10078125,-1.7778218673325519e-6
0.10078125,-1.7778218673325519e-6
0.10097656250000091,-2.1464231625967223e-6
0.10097656250000091,-2.1464231625967223e-6
0.101,-2.1786669311962825e-6
0.101171875,-2.3735668379931685e-6
0.101171875,-2.3735668379931685e-6
0.10136718750000091,-2.5524370096396964e-6
0.10136718750000091,-2.5524370096396964e-6
0.1015625,-2.6758707119822756e-6
0.1015625,-2.6758707119822756e-6
0.10175781250000092,-2.7596615570779637e-6
0.10175781250000092,-2.7596615570779637e-6
0.101953125,-2.884813586845336e-6
0.101953125,-2.884813586845336e-6
0.102,-2.928007386604481e-6
0.10214843750000092,-3.1133629175561506e-6
0.10214843750000092,-3.1133629175561506e-6
0.10234375,-3.413376781807864e-6
0.10234375,-3.413376781807864e-6
0.10253906250000093,-3.6991737725478036e-6
0.10253906250000093,-3.6991737725478036e-6
0.102734375,-4.084275637139534e-6
0.102734375,-4.084275637139534e-6
0.10292968750000094,-4.56023149492113e-6
0.10292968750000094,-4.56023149492113e-6
0.103,-4.693426146451518e-6
0.103125,-4.859543820290302e-6
0.103125,-4.859543820290302e-6
0.10332031250000094,-5.0864858560095705e-6
0.10332031250000094,-5.0864858560095705e-6
0.103515625,-5.423856144104455e-6
0.103515625,-5.423856144104455e-6
0.10371093750000095,-5.63261864997e-6
0.10371093750000095,-5.63261864997e-6
0.10390625,-5.6452226214753765e-6
0.10390625,-5.6452226214753765e-6
0.104,-5.685923704451534e-6
0.10410156250000095,-5.791507813740493e-6
0.10410156250000095,-5.791507813740493e-6
0.104296875,-6.058373521744542e-6
0.104296875,-6.058373521744542e-6
0.10449218750000096,-6.1859589254309455e-6
0.10449218750000096,-6.1859589254309455e-6
0.1046875,-6.318367646862555e-6
0.1046875,-6.318367646862555e-6
0.10488281250000096,-6.689381141927742e-6
0.10488281250000096,-6.689381141927742e-6
0.105,-6.937193551437293e-6
0.105078125,-7.0595337844092665e-6
0.105078125,-7.0595337844092665e-6
0.10527343750000097,-7.244599592698409e-6
0.10527343750000097,-7.244599592698409e-6
0.10546875,-7.506234049492466e-6
0.10546875,-7.506234049492466e-6
0.10566406250000097,-7.759473076685008e-6
0.10566406250000097,-7.759473076685008e-6
0.105859375,-8.009472239473014e-6
0.105859375,-8.009472239473014e-6
0.106,-8.116923061546322e-6
0.10605468750000098,-8.133051551117987e-6
0.10605468750000098,-8.133051551117987e-6
0.10625,-8.149590813244512e-6
0.10625,-8.149590813244512e-6
0.10644531250000099,-8.305392155100177e-6
0.10644531250000099,-8.305392155100177e-6
0.106640625,-8.538419034892497e-6
0.106640625,-8.538419034892497e-6
0.10683593750000099,-8.594147176077538e-6
0.10683593750000099,-8.594147176077538e-6
0.107,-8.64462364236207e-6
0.10703125,-8.673781043078144e-6
0.10703125,-8.673781043078144e-6
0.107226562500001,-8.988985598590293e-6
0.107226562500001,-8.988985598590293e-6
0.107421875,-9.215397452633223e-6
0.107421875,-9.215397452633223e-6
0.107617187500001,-9.305390321234785e-6
0.107617187500001,-9.305390321234785e-6
0.1078125,-9.535332343768577e-6
0.1078125,-9.535332343768577e-6
0.108,-9.739959301396928e-6
0.10800781250000101,-9.74478823234648e-6
0.10800781250000101,-9.74478823234648e-6
0.108203125,-9.796094590369675e-6
0.108203125,-9.796094590369675e-6
0.10839843750000101,-9.86178178485897e-6
0.10839843750000101,-9.86178178485897e-6
0.10859375,-9.98255091058664e-6
0.10859375,-9.98255091058664e-6
0.10878906250000102,-1.003393102330663e-5
0.10878906250000102,-1.003393102330663e-5
0.108984375,-1.0100627597792178e-5
0.108984375,-1.0100627597792178e-5
0.109,-1.010736432630055e-5
0.10917968750000102,-1.0173108214772686e-5
0.10917968750000102,-1.0173108214772686e-5
0.109375,-1.023551008383361e-5
0.109375,-1.023551008383361e-5
0.10957031250000103,-1.0391219864042123e-5
0.10957031250000103,-1.0391219864042123e-5
0.109765625,-1.0522490429820675e-5
0.109765625,-1.0522490429820675e-5
0.10996093750000104,-1.0553916238581484e-5
0.10996093750000104,-1.0553916238581484e-5
0.11,-1.056927855305756e-5
0.11015625,-1.0675104122476187e-5
0.11015625,-1.0675104122476187e-5
0.11035156250000104,-1.0772613448922774e-5
0.11035156250000104,-1.0772613448922774e-5
0.110546875,-1.0778470128175455e-5
0.110546875,-1.0778470128175455e-5
0.11074218750000105,-1.0837977105382368e-5
0.11074218750000105,-1.0837977105382368e-5
0.1109375,-1.0871250065241922e-5
0.1109375,-1.0871250065241922e-5
0.111,-1.083504293739046e-5
0.11113281250000105,-1.0739818215921293e-5
0.11113281250000105,-1.0739818215921293e-5
0.111328125,-1.0798839134545934e-5
0.111328125,-1.0798839134545934e-5
0.11152343750000106,-1.0960472192539372e-5
0.11152343750000106,-1.0960472192539372e-5
0.11171875,-1.0859726615353171e-5
0.11171875,-1.0859726615353171e-5
0.11191406250000106,-1.0760728983816303e-5
0.11191406250000106,-1.0760728983816303e-5
0.112,-1.0804452660218011e-5
0.112109375,-1.0919878460996513e-5
0.112109375,-1.0919878460996513e-5
0.11230468750000107,-1.1022495188112158e-5
0.11230468750000107,-1.1022495188112158e-5
0.1125,-1.0892609241586193e-5
0.1125,-1.0892609241586193e-5
0.11269531250000107,-1.0867708971906698e-5
0.11269531250000107,-1.0867708971906698e-5
0.112890625,-1.0951815192034031e-5
0.112890625,-1.0951815192034031e-5
0.113,-1.092426059909335e-5
0.11308593750000108,-1.08624204616381e-5
0.11308593750000108,-1.08624204616381e-5
0.11328125,-1.0763788072132296e-5
0.11328125,-1.0763788072132296e-5
0.11347656250000109,-1.0779346787392896e-5
0.11347656250000109,-1.0779346787392896e-5
0.113671875,-1.0692462894451582e-5
0.113671875,-1.0692462894451582e-5
0.11386718750000109,-1.0606089666520546e-5
0.11386718750000109,-1.0606089666520546e-5
0.114,-1.0618214890484312e-5
0.1140625,-1.0618179824728458e-5
0.1140625,-1.0618179824728458e-5
0.1142578125000011,-1.052353002750639e-5
0.1142578125000011,-1.052353002750639e-5
0.114453125,-1.0456934401326112e-5
0.114453125,-1.0456934401326112e-5
0.1146484375000011,-1.0476335132125758e-5
0.1146484375000011,-1.0476335132125758e-5
0.11484375,-1.0357139441641294e-5
0.11484375,-1.0357139441641294e-5
0.115,-1.0271740037454125e-5
0.11503906250000111,-1.0265931133929262e-5
0.11503906250000111,-1.0265931133929262e-5
0.115234375,-1.0251617301837435e-5
0.115234375,-1.0251617301837435e-5
0.11542968750000111,-1.0115347565453625e-5
0.11542968750000111,-1.0115347565453625e-5
0.115625,-9.989105861696324e-6
0.115625,-9.989105861696324e-6
0.11582031250000112,-9.920114733358298e-6
0.11582031250000112,-9.920114733358298e-6
0.116,-9.82907435359559e-6
0.116015625,-9.81890018708631e-6
0.116015625,-9.81890018708631e-6
0.11621093750000112,-9.681113853216017e-6
0.11621093750000112,-9.681113853216017e-6
0.11640625,-9.57647905514003e-6
0.11640625,-9.57647905514003e-6
0.11660156250000113,-9.503109695135903e-6
0.11660156250000113,-9.503109695135903e-6
0.116796875,-9.405197747003324e-6
0.116796875,-9.405197747003324e-6
0.11699218750000114,-9.246943120433393e-6
0.11699218750000114,-9.246943120433393e-6
0.117,-9.241383792935043e-6
0.1171875,-9.158506515200004e-6
0.1171875,-9.158506515200004e-6
0.11738281250000114,-9.081872076044384e-6
0.11738281250000114,-9.081872076044384e-6
0.117578125,-8.93012034436369e-6
0.117578125,-8.93012034436369e-6
0.11777343750000115,-8.72929301851122e-6
0.11777343750000115,-8.72929301851122e-6
0.11796875,-8.652999947178497e-6
0.11796875,-8.652999947178497e-6
0.118,-8.649177691416599e-6
0.11816406250000115,-8.58081840585112e-6
0.11816406250000115,-8.58081840585112e-6
0.118359375,-8.333586218906008e-6
0.118359375,-8.333586218906008e-6
0.11855468750000116,-8.164009248773363e-6
0.11855468750000116,-8.164009248773363e-6
0.11875,-8.130897843017237e-6
0.11875,-8.130897843017237e-6
0.11894531250000116,-7.988405463094095e-6
0.11894531250000116,-7.988405463094095e-6
0.119,-7.928735380358098e-6
0.119140625,-7.794415460116166e-6
0.119140625,-7.794415460116166e-6
0.11933593750000117,-7.660070893145132e-6
0.11933593750000117,-7.660070893145132e-6
0.11953125,-7.518843323089941e-6
0.11953125,-7.518843323089941e-6
0.11972656250000117,-7.422764010972527e-6
0.11972656250000117,-7.422764010972527e-6
0.119921875,-7.289472861188306e-6
0.119921875,-7.289472861188306e-6
0.12,-7.188771095373303e-6
0.12011718750000118,-7.027413081339695e-6
0.12011718750000118,-7.027413081339695e-6
0.1203125,-6.89927746641561e-6
0.1203125,-6.89927746641561e-6
0.12050781250000119,-6.8435497550256574e-6
0.12050781250000119,-6.8435497550256574e-6
0.120703125,-6.641237309201742e-6
0.120703125,-6.641237309201742e-6
0.12089843750000119,-6.42668031586302e-6
0.12089843750000119,-6.42668031586302e-6
0.121,-6.356019734393703e-6
0.12109375,-6.308360177759154e-6
0.12109375,-6.308360177759154e-6
0.1212890625000012,-6.1946620013020315e-6
0.1212890625000012,-6.1946620013020315e-6
0.121484375,-6.044923301834482e-6
0.121484375,-6.044923301834482e-6
0.1216796875000012,-5.861376363242021e-6
0.1216796875000012,-5.861376363242021e-6
0.121875,-5.697563475792755e-6
0.121875,-5.697563475792755e-6
0.122,-5.64250605697425e-6
0.12207031250000121,-5.6036557496697e-6
0.12207031250000121,-5.6036557496697e-6
0.122265625,-5.430384480115125e-6
0.122265625,-5.430384480115125e-6
0.12246093750000121,-5.263137689587305e-6
0.12246093750000121,-5.263137689587305e-6
0.12265625,-5.087606850362469e-6
0.12265625,-5.087606850362469e-6
0.12285156250000122,-4.975910813942441e-6
0.12285156250000122,-4.975910813942441e-6
0.123,-4.887595737218531e-6
0.123046875,-4.847102646671209e-6
0.123046875,-4.847102646671209e-6
0.12324218750000122,-4.639449418530894e-6
0.12324218750000122,-4.639449418530894e-6
0.1234375,-4.507179005464046e-6
0.1234375,-4.507179005464046e-6
0.12363281250000123,-4.415423855985701e-6
0.12363281250000123,-4.415423855985701e-6
0.123828125,-4.233351120014328e-6
0.123828125,-4.233351120014328e-6
0.124,-4.09043378510332e-6
0.12402343750000124,-4.079270907259014e-6
0.12402343750000124,-4.079270907259014e-6
0.12421875,-3.997603007149797e-6
0.12421875,-3.997603007149797e-6
0.12441406250000124,-3.807192081067834e-6
0.12441406250000124,-3.807192081067834e-6
0.124609375,-3.6749208547348644e-6
0.124609375,-3.6749208547348644e-6
0.12480468750000125,-3.5852298772842683e-6
0.12480468750000125,-3.5852298772842683e-6
0.125,-3.4118630240498327e-6
0.125,-3.4118630240498327e-6
0.12519531250000124,-3.2481772223869054e-6
0.12519531250000124,-3.2481772223869054e-6
0.125390625,-3.1703827566842424e-6
0.125390625,-3.1703827566842424e-6
0.12558593750000122,-3.060105733115881e-6
0.12558593750000122,-3.060105733115881e-6
0.12578125,-2.8728798605603956e-6
0.12578125,-2.8728798605603956e-6
0.1259765625000012,-2.7735580498400303e-6
0.1259765625000012,-2.7735580498400303e-6
0.126,-2.7680830266552103e-6
0.126171875,-2.701415601158441e-6
0.126171875,-2.701415601158441e-6
0.12636718750000117,-2.539146999380737e-6
0.12636718750000117,-2.539146999380737e-6
0.1265625,-2.438483856087581e-6
0.1265625,-2.438483856087581e-6
0.12675781250000115,-2.3601441398457546e-6
0.12675781250000115,-2.3601441398457546e-6
0.126953125,-2.199834260058209e-6
0.126953125,-2.199834260058209e-6
0.127,-2.164505641000236e-6
0.12714843750000113,-2.0993898149634926e-6
0.12714843750000113,-2.0993898149634926e-6
0.12734375,-2.0400287725763633e-6
0.12734375,-2.0400287725763633e-6
0.1275390625000011,-1.9184065358224256e-6
0.1275390625000011,-1.9184065358224256e-6
0.127734375,-1.7953115590829682e-6
0.127734375,-1.7953115590829682e-6
0.12792968750000108,-1.7153814338977114e-6
0.12792968750000108,-1.7153814338977114e-6
0.128,-1.6919484351063385e-6
0.128125,-1.643561028275009e-6
0.128125,-1.643561028275009e-6
0.12832031250000106,-1.5431195201365266e-6
0.12832031250000106,-1.5431195201365266e-6
0.128515625,-1.4510750568907937e-6
0.128515625,-1.4510750568907937e-6
0.12871093750000104,-1.3783777517428764e-6
0.12871093750000104,-1.3783777517428764e-6
0.12890625,-1.3093593300150808e-6
0.12890625,-1.3093593300150808e-6
0.129,-1.2762730210724715e-6
0.12910156250000102,-1.2364365735428873e-6
0.12910156250000102,-1.2364365735428873e-6
0.129296875,-1.1474147381396183e-6
0.129296875,-1.1474147381396183e-6
0.129492187500001,-1.0798986714855019e-6
0.129492187500001,-1.0798986714855019e-6
0.1296875,-1.0359619807553955e-6
0.1296875,-1.0359619807553955e-6
0.12988281250000097,-9.61463321069722e-7
0.12988281250000097,-9.61463321069722e-7
0.13,-8.935268842880095e-7
0.130078125,-8.552905182701576e-7
0.130078125,-8.552905182701576e-7
0.13027343750000095,-8.468366327063492e-7
0.13027343750000095,-8.468366327063492e-7
0.13046875,-8.729429813725265e-7
0.13046875,-8.729429813725265e-7
0.13066406250000093,-7.263126508838535e-7
0.13066406250000093,-7.263126508838535e-7
0.130859375,-5.715233934722175e-7
0.130859375,-5.715233934722175e-7
0.131,-6.275040041192614e-7
0.1310546875000009,-6.836892925687899e-7
0.1310546875000009,-6.836892925687899e-7
0.13125,-8.013992544853021e-7
0.13125,-8.013992544853021e-7
0.13144531250000088,-4.873123132798085e-7
0.13144531250000088,-4.873123132798085e-7
0.131640625,-3.222010447334611e-7
0.131640625,-3.222010447334611e-7
0.13183593750000086,-7.300145240529687e-7
0.13183593750000086,-7.300145240529687e-7
0.132,-7.510920260189735e-7
0.13203125,-6.828758288834891e-7
0.13203125,-6.828758288834891e-7
0.13222656250000084,-1.5568791250641922e-7
0.13222656250000084,-1.5568791250641922e-7
0.132421875,-3.53180924395069e-7
0.132421875,-3.53180924395069e-7
0.13261718750000082,-7.756548189852275e-7
0.13261718750000082,-7.756548189852275e-7
0.1328125,-3.87606995666534e-7
0.1328125,-3.87606995666534e-7
0.133,-9.461783884168184e-8
0.1330078125000008,-1.0009969858559842e-7
0.1330078125000008,-1.0009969858559842e-7
0.133203125,-5.281841224946682e-7
0.133203125,-5.281841224946682e-7
0.13339843750000077,-6.013268141757955e-7
0.13339843750000077,-6.013268141757955e-7
0.13359375,-2.2879704447698046e-7
0.13359375,-2.2879704447698046e-7
0.13378906250000075,-2.8922449846202625e-7
0.13378906250000075,-2.8922449846202625e-7
0.133984375,-5.272111424647896e-7
0.133984375,-5.272111424647896e-7
0.134,-5.320348542836584e-7
0.13417968750000073,-4.242658569464375e-7
0.13417968750000073,-4.242658569464375e-7
0.134375,-3.204573840731584e-7
0.134375,-3.204573840731584e-7
0.1345703125000007,-4.2997111632248064e-7
0.1345703125000007,-4.2997111632248064e-7
0.134765625,-5.036774954891854e-7
0.134765625,-5.036774954891854e-7
0.13496093750000068,-4.5467572423740776e-7
0.13496093750000068,-4.5467572423740776e-7
0.135,-4.4362146228715815e-7
0.13515625,-4.287742009778661e-7
0.13515625,-4.287742009778661e-7
0.13535156250000066,-4.913149638241521e-7
0.13535156250000066,-4.913149638241521e-7
0.135546875,-5.828613020009143e-7
0.135546875,-5.828613020009143e-7
0.13574218750000064,-5.818516461419954e-7
0.13574218750000064,-5.818516461419954e-7
0.1359375,-5.255669043857658e-7
0.1359375,-5.255669043857658e-7
0.136,-5.320404311004445e-7
0.13613281250000062,-5.98460708600701e-7
0.13613281250000062,-5.98460708600701e-7
0.136328125,-7.124358129551034e-7
0.136328125,-7.124358129551034e-7
0.1365234375000006,-7.035028223301154e-7
0.1365234375000006,-7.035028223301154e-7
0.13671875,-6.755586864359842e-7
0.13671875,-6.755586864359842e-7
0.13691406250000057,-7.558533527962652e-7
0.13691406250000057,-7.558533527962652e-7
0.137,-8.065189480710444e-7
0.137109375,-8.677399209178205e-7
0.137109375,-8.677399209178205e-7
0.13730468750000055,-8.719255821798555e-7
0.13730468750000055,-8.719255821798555e-7
0.1375,-8.16108632617496e-7
0.1375,-8.16108632617496e-7
0.13769531250000053,-1.0048411152596692e-6
0.13769531250000053,-1.0048411152596692e-6
0.137890625,-1.1024505212620106e-6
0.137890625,-1.1024505212620106e-6
0.138,-1.005980715507171e-6
0.1380859375000005,-9.318095563481954e-7
0.1380859375000005,-9.318095563481954e-7
0.13828125,-1.056854621706016e-6
0.13828125,-1.056854621706016e-6
0.13847656250000048,-1.3209467498165317e-6
0.13847656250000048,-1.3209467498165317e-6
0.138671875,-1.191120022669967e-6
0.138671875,-1.191120022669967e-6
0.13886718750000046,-1.123254380286376e-6
0.13886718750000046,-1.123254380286376e-6
0.139,-1.3180799851575387e-6
0.1390625,-1.4184406700867846e-6
0.1390625,-1.4184406700867846e-6
0.13925781250000044,-1.4754396343019671e-6
0.13925781250000044,-1.4754396343019671e-6
0.139453125,-1.3342088865386792e-6
0.139453125,-1.3342088865386792e-6
0.13964843750000042,-1.4768144070420597e-6
0.13964843750000042,-1.4768144070420597e-6
0.13984375,-1.6437381678557905e-6
0.13984375,-1.6437381678557905e-6
0.14,-1.6255226941153111e-6
0.1400390625000004,-1.6228367009651912e-6
0.1400390625000004,-1.6228367009651912e-6
0.140234375,-1.6943347103670625e-6
0.140234375,-1.6943347103670625e-6
0.14042968750000037,-1.764189406283645e-6
0.14042968750000037,-1.764189406283645e-6
0.140625,-1.8076126440114137e-6
0.140625,-1.8076126440114137e-6
0.14082031250000035,-1.952387395698363e-6
0.14082031250000035,-1.952387395698363e-6
0.141,-1.9785618610157485e-6
0.141015625,-1.974043265073888e-6
0.141015625,-1.974043265073888e-6
0.14121093750000033,-1.959920586158681e-6
0.14121093750000033,-1.959920586158681e-6
0.14140625,-2.138475060309286e-6
0.14140625,-2.138475060309286e-6
0.1416015625000003,-2.2102334355511566e-6
0.1416015625000003,-2.2102334355511566e-6
0.141796875,-2.1743533122897674e-6
0.141796875,-2.1743533122897674e-6
0.14199218750000028,-2.3060770262262054e-6
0.14199218750000028,-2.3060770262262054e-6
0.142,-2.3128211467660087e-6
0.1421875,-2.4206598656095757e-6
0.1421875,-2.4206598656095757e-6
0.14238281250000026,-2.3995082403249768e-6
0.14238281250000026,-2.3995082403249768e-6
0.142578125,-2.47852923868086e-6
0.142578125,-2.47852923868086e-6
0.14277343750000024,-2.628496201750874e-6
0.14277343750000024,-2.628496201750874e-6
0.14296875,-2.6299155338471714e-6
0.14296875,-2.6299155338471714e-6
0.143,-2.62744667967052e-6
0.14316406250000022,-2.6800443982955002e-6
0.14316406250000022,-2.6800443982955002e-6
0.143359375,-2.79815010184592e-6
0.143359375,-2.79815010184592e-6
0.1435546875000002,-2.8431456069455407e-6
0.1435546875000002,-2.8431456069455407e-6
0.14375,-2.9037105616636083e-6
0.14375,-2.9037105616636083e-6
0.14394531250000017,-2.9904544227576935e-6
0.14394531250000017,-2.9904544227576935e-6
0.144,-3.0025059295502032e-6
0.144140625,-3.0264869601559496e-6
0.144140625,-3.0264869601559496e-6
0.14433593750000015,-3.1002783962286173e-6
0.14433593750000015,-3.1002783962286173e-6
0.14453125,-3.1988858057441227e-6
0.14453125,-3.1988858057441227e-6
0.14472656250000013,-3.215457203220584e-6
0.14472656250000013,-3.215457203220584e-6
0.144921875,-3.256214171465377e-6
0.144921875,-3.256214171465377e-6
0.145,-3.3080161036536104e-6
0.1451171875000001,-3.408088463885406e-6
0.1451171875000001,-3.408088463885406e-6
0.1453125,-3.4594119305286775e-6
0.1453125,-3.4594119305286775e-6
0.14550781250000008,-3.3848809869452268e-6
0.14550781250000008,-3.3848809869452268e-6
0.145703125,-3.516796022562385e-6
0.145703125,-3.516796022562385e-6
0.14589843750000006,-3.7132871921752297e-6
0.14589843750000006,-3.7132871921752297e-6
0.146,-3.6964518835280735e-6
0.14609375,-3.6266723472122564e-6
0.14609375,-3.6266723472122564e-6
0.14628906250000004,-3.59999765325858e-6
0.14628906250000004,-3.59999765325858e-6
0.146484375,-3.7987257777150063e-6
0.146484375,-3.7987257777150063e-6
0.14667968750000002,-3.903125968707233e-6
0.14667968750000002,-3.903125968707233e-6
0.146875,-3.8081556598124067e-6
0.146875,-3.8081556598124067e-6
0.147,-3.807368585351245e-6
0.1470703125,-3.851277324551372e-6
0.1470703125,-3.851277324551372e-6
0.147265625,-4.015500933318705e-6
0.147265625,-4.015500933318705e-6
0.14746093749999997,-4.0538009100643535e-6
0.14746093749999997,-4.0538009100643535e-6
0.14765625,-4.014211014646829e-6
0.14765625,-4.014211014646829e-6
0.14785156249999995,-4.077838466898243e-6
0.14785156249999995,-4.077838466898243e-6
0.148,-4.162827682896442e-6
0.148046875,-4.181995275021055e-6
0.148046875,-4.181995275021055e-6
0.14824218749999993,-4.2074053498986075e-6
0.14824218749999993,-4.2074053498986075e-6
0.1484375,-4.20512793186667e-6
0.1484375,-4.20512793186667e-6
0.1486328124999999,-4.2596541886541495e-6
0.1486328124999999,-4.2596541886541495e-6
0.148828125,-4.328636446226941e-6
0.148828125,-4.328636446226941e-6
0.149,-4.3507517681895536e-6
0.14902343749999988,-4.352062757673192e-6
0.14902343749999988,-4.352062757673192e-6
0.14921875,-4.36362716338401e-6
0.14921875,-4.36362716338401e-6
0.14941406249999986,-4.411011332583481e-6
0.14941406249999986,-4.411011332583481e-6
0.149609375,-4.464371721135674e-6
0.149609375,-4.464371721135674e-6
0.14980468749999984,-4.458812805530066e-6
0.14980468749999984,-4.458812805530066e-6
0.15,-4.4983600844816785e-6
0.15,-4.4983600844816785e-6
0.15019531249999982,-4.5387855336365135e-6
0.15019531249999982,-4.5387855336365135e-6
0.150390625,-4.5617313978452145e-6
0.150390625,-4.5617313978452145e-6
0.1505859374999998,-4.574455166439506e-6
0.1505859374999998,-4.574455166439506e-6
0.15078125,-4.57844571788435e-6
0.15078125,-4.57844571788435e-6
0.15097656249999977,-4.611627254624828e-6
0.15097656249999977,-4.611627254624828e-6
0.151,-4.621269188653798e-6
0.151171875,-4.695713018754155e-6
0.151171875,-4.695713018754155e-6
0.15136718749999975,-4.655147362031542e-6
0.15136718749999975,-4.655147362031542e-6
0.1515625,-4.583745720043719e-6
0.1515625,-4.583745720043719e-6
0.15175781249999973,-4.711592475004078e-6
0.15175781249999973,-4.711592475004078e-6
0.151953125,-4.774135128393642e-6
0.151953125,-4.774135128393642e-6
0.152,-4.752686931286387e-6
0.1521484374999997,-4.656184736107072e-6
0.1521484374999997,-4.656184736107072e-6
0.15234375,-4.664137218057807e-6
0.15234375,-4.664137218057807e-6
0.15253906249999968,-4.761596470725937e-6
0.15253906249999968,-4.761596470725937e-6
0.152734375,-4.767015235163097e-6
0.152734375,-4.767015235163097e-6
0.15292968749999966,-4.6953761854151566e-6
0.15292968749999966,-4.6953761854151566e-6
0.153,-4.67257710179414e-6
0.153125,-4.671500934028128e-6
0.153125,-4.671500934028128e-6
0.15332031249999964,-4.777162115499056e-6
0.15332031249999964,-4.777162115499056e-6
0.153515625,-4.801012859489973e-6
0.153515625,-4.801012859489973e-6
0.15371093749999962,-4.6608139284698424e-6
0.15371093749999962,-4.6608139284698424e-6
0.15390625,-4.663858335529625e-6
0.15390625,-4.663858335529625e-6
0.154,-4.727133925241933e-6
0.1541015624999996,-4.789190658660569e-6
0.1541015624999996,-4.789190658660569e-6
0.154296875,-4.751691358995114e-6
0.154296875,-4.751691358995114e-6
0.15449218749999957,-4.632523638248287e-6
0.15449218749999957,-4.632523638248287e-6
0.1546875,-4.675808516985125e-6
0.1546875,-4.675808516985125e-6
0.15488281249999955,-4.742114235289918e-6
0.15488281249999955,-4.742114235289918e-6
0.155,-4.704975240465981e-6
0.155078125,-4.661032100117257e-6
0.155078125,-4.661032100117257e-6
0.15527343749999953,-4.62382894567126e-6
0.15527343749999953,-4.62382894567126e-6
0.15546875,-4.642110519537113e-6
0.15546875,-4.642110519537113e-6
0.1556640624999995,-4.6106366695108925e-6
0.1556640624999995,-4.6106366695108925e-6
0.155859375,-4.621167058072029e-6
0.155859375,-4.621167058072029e-6
0.156,-4.6191990727972865e-6
0.15605468749999948,-4.602062241509941e-6
0.15605468749999948,-4.602062241509941e-6
0.15625,-4.504762957047159e-6
0.15625,-4.504762957047159e-6
0.15644531249999946,-4.546205081890076e-6
0.15644531249999946,-4.546205081890076e-6
0.156640625,-4.584112516969885e-6
0.156640625,-4.584112516969885e-6
0.15683593749999944,-4.451498960833522e-6
0.15683593749999944,-4.451498960833522e-6
0.157,-4.417713502791187e-6
0.15703125,-4.4240922885685485e-6
0.15703125,-4.4240922885685485e-6
0.15722656249999942,-4.4796308314443145e-6
0.15722656249999942,-4.4796308314443145e-6
0.157421875,-4.4412148288985875e-6
0.157421875,-4.4412148288985875e-6
0.1576171874999994,-4.338676870718761e-6
0.1576171874999994,-4.338676870718761e-6
0.1578125,-4.3539646771839635e-6
0.1578125,-4.3539646771839635e-6
0.158,-4.351971467864146e-6
0.15800781249999937,-4.34890785550035e-6
0.15800781249999937,-4.34890785550035e-6
0.158203125,-4.266635758032322e-6
0.158203125,-4.266635758032322e-6
0.15839843749999935,-4.267609458097343e-6
0.15839843749999935,-4.267609458097343e-6
0.15859375,-4.233939949471743e-6
0.15859375,-4.233939949471743e-6
0.15878906249999933,-4.153951453145233e-6
0.15878906249999933,-4.153951453145233e-6
0.158984375,-4.182935822050204e-6
0.158984375,-4.182935822050204e-6
0.159,-4.186036060671583e-6
0.1591796874999993,-4.153707057474865e-6
0.1591796874999993,-4.153707057474865e-6
0.159375,-4.0393969473195845e-6
0.159375,-4.0393969473195845e-6
0.15957031249999928,-4.073020630435131e-6
0.15957031249999928,-4.073020630435131e-6
0.159765625,-3.998767613810905e-6
0.159765625,-3.998767613810905e-6
0.15996093749999926,-3.944591369098305e-6
0.15996093749999926,-3.944591369098305e-6
0.16,-3.951917306843633e-6
0.16015625,-3.981993272672568e-6
0.16015625,-3.981993272672568e-6
0.16035156249999924,-3.887963641757697e-6
0.16035156249999924,-3.887963641757697e-6
0.160546875,-3.802188565438236e-6
0.160546875,-3.802188565438236e-6
0.16074218749999922,-3.832656435276416e-6
0.16074218749999922,-3.832656435276416e-6
0.1609375,-3.8058354058234656e-6
0.1609375,-3.8058354058234656e-6
0.161,-3.7699923851608474e-6
0.1611328124999992,-3.703110508845864e-6
0.1611328124999992,-3.703110508845864e-6
0.161328125,-3.6871768209767453e-6
0.161328125,-3.6871768209767453e-6
0.16152343749999917,-3.6734596559062638e-6
0.16152343749999917,-3.6734596559062638e-6
0.16171875,-3.5925496154609604e-6
0.16171875,-3.5925496154609604e-6
0.16191406249999915,-3.5648209227856498e-6
0.16191406249999915,-3.5648209227856498e-6
0.162,-3.5662058808227926e-6
0.162109375,-3.553646328813276e-6
0.162109375,-3.553646328813276e-6
0.16230468749999913,-3.462962599676267e-6
0.16230468749999913,-3.462962599676267e-6
0.1625,-3.4163094992378795e-6
0.1625,-3.4163094992378795e-6
0.1626953124999991,-3.4234280875677925e-6
0.1626953124999991,-3.4234280875677925e-6
0.162890625,-3.361395026491021e-6
0.162890625,-3.361395026491021e-6
0.163,-3.3073918652148926e-6
0.16308593749999908,-3.279653935095439e-6
0.16308593749999908,-3.279653935095439e-6
0.16328125,-3.278309501975052e-6
0.16328125,-3.278309501975052e-6
0.16347656249999906,-3.2608989636861985e-6
0.16347656249999906,-3.2608989636861985e-6
0.163671875,-3.147717752782775e-6
0.163671875,-3.147717752782775e-6
0.16386718749999904,-3.1460760374080188e-6
0.16386718749999904,-3.1460760374080188e-6
0.164,-3.156310407814722e-6
0.1640625,-3.1378736394249707e-6
0.1640625,-3.1378736394249707e-6
0.16425781249999902,-3.0327277417141474e-6
0.16425781249999902,-3.0327277417141474e-6
0.164453125,-3.0224751305651942e-6
0.164453125,-3.0224751305651942e-6
0.164648437499999,-3.0029717966173486e-6
0.164648437499999,-3.0029717966173486e-6
0.16484375,-2.906760803722541e-6
0.16484375,-2.906760803722541e-6
0.165,-2.8924225737858578e-6
0.16503906249999897,-2.8969595358696587e-6
0.16503906249999897,-2.8969595358696587e-6
0.165234375,-2.886938620216828e-6
0.165234375,-2.886938620216828e-6
0.16542968749999895,-2.78458891933564e-6
0.16542968749999895,-2.78458891933564e-6
0.165625,-2.761109855309307e-6
0.165625,-2.761109855309307e-6
0.16582031249999893,-2.7861684201435644e-6
0.16582031249999893,-2.7861684201435644e-6
0.166,-2.6923259326960824e-6
0.166015625,-2.6820109322867047e-6
0.166015625,-2.6820109322867047e-6
0.1662109374999989,-2.6346270495247737e-6
0.1662109374999989,-2.6346270495247737e-6
0.16640625,-2.6642136313204112e-6
0.16640625,-2.6642136313204112e-6
0.16660156249999888,-2.5822695318700184e-6
0.16660156249999888,-2.5822695318700184e-6
0.166796875,-2.527008818753451e-6
0.166796875,-2.527008818753451e-6
0.16699218749999886,-2.5437639920578015e-6
0.16699218749999886,-2.5437639920578015e-6
0.167,-2.5435326240219602e-6
0.1671875,-2.4859446502434324e-6
0.1671875,-2.4859446502434324e-6
0.16738281249999884,-2.4142896555834348e-6
0.16738281249999884,-2.4142896555834348e-6
0.167578125,-2.4245469040229395e-6
0.167578125,-2.4245469040229395e-6
0.16777343749999882,-2.4039892391192197e-6
0.16777343749999882,-2.4039892391192197e-6
0.16796875,-2.323307937646124e-6
0.16796875,-2.323307937646124e-6
0.168,-2.3123518090861772e-6
0.1681640624999988,-2.3025396163056655e-6
0.1681640624999988,-2.3025396163056655e-6
0.168359375,-2.3132785649804255e-6
0.168359375,-2.3132785649804255e-6
0.16855468749999877,-2.2589939232542378e-6
0.16855468749999877,-2.2589939232542378e-6
0.16875,-2.2051611030526885e-6
0.16875,-2.2051611030526885e-6
0.16894531249999875,-2.2083931999206108e-6
0.16894531249999875,-2.2083931999206108e-6
0.169,-2.2014967544503605e-6
0.169140625,-2.1688040151568444e-6
0.169140625,-2.1688040151568444e-6
0.16933593749999873,-2.1306661358022616e-6
0.16933593749999873,-2.1306661358022616e-6
0.16953125,-2.1310514973782446e-6
0.16953125,-2.1310514973782446e-6
0.1697265624999987,-2.094350362358277e-6
0.1697265624999987,-2.094350362358277e-6
0.169921875,-2.051360071919639e-6
0.169921875,-2.051360071919639e-6
0.17,-2.0414155624814967e-6
0.17011718749999868,-2.0323711734659966e-6
0.17011718749999868,-2.0323711734659966e-6
0.1703125,-2.0270321415827297e-6
0.1703125,-2.0270321415827297e-6
0.17050781249999866,-2.0063543524906358e-6
0.17050781249999866,-2.0063543524906358e-6
0.170703125,-1.9558544009923295e-6
0.170703125,-1.9558544009923295e-6
0.17089843749999864,-1.9483033918965553e-6
0.17089843749999864,-1.9483033918965553e-6
0.171,-1.957229194937682e-6
0.17109375,-1.9651960153077574e-6
0.17109375,-1.9651960153077574e-6
0.17128906249999862,-1.926147059683192e-6
0.17128906249999862,-1.926147059683192e-6
0.171484375,-1.849767271577818e-6
0.171484375,-1.849767271577818e-6
0.1716796874999986,-1.8929339040685278e-6
0.1716796874999986,-1.8929339040685278e-6
0.171875,-1.925984867312547e-6
0.171875,-1.925984867312547e-6
0.172,-1.851836502198001e-6
0.17207031249999857,-1.8074058333317211e-6
0.17207031249999857,-1.8074058333317211e-6
0.172265625,-1.8026599384879383e-6
0.172265625,-1.8026599384879383e-6
0.17246093749999855,-1.8582390894916756e-6
0.17246093749999855,-1.8582390894916756e-6
0.17265625,-1.818195146829904e-6
0.17265625,-1.818195146829904e-6
0.17285156249999853,-1.7808109359918056e-6
0.17285156249999853,-1.7808109359918056e-6
0.173,-1.773490628520502e-6
0.173046875,-1.7717080723622658e-6
0.173046875,-1.7717080723622658e-6
0.1732421874999985,-1.7886529958821562e-6
0.1732421874999985,-1.7886529958821562e-6
0.1734375,-1.8052960536474316e-6
0.1734375,-1.8052960536474316e-6
0.17363281249999848,-1.7184105609024947e-6
0.17363281249999848,-1.7184105609024947e-6
0.173828125,-1.7570418023860057e-6
0.173828125,-1.7570418023860057e-6
0.174,-1.833744731616349e-6
0.17402343749999846,-1.829312686274509e-6
0.17402343749999846,-1.829312686274509e-6
0.17421875,-1.6713845705784713e-6
0.17421875,-1.6713845705784713e-6
0.17441406249999844,-1.6802960034478787e-6
0.17441406249999844,-1.6802960034478787e-6
0.174609375,-1.8541540737770923e-6
0.174609375,-1.8541540737770923e-6
0.17480468749999842,-1.713547500892254e-6
0.17480468749999842,-1.713547500892254e-6
0.175,-1.6011446807850938e-6
0.175,-1.6011446807850938e-6
0.175,-1.6011447899755282e-6
0.1751953124999984,-1.8013651963411093e-6
0.1751953124999984,-1.8013651963411093e-6
0.175390625,-1.7880682081083954e-6
0.175390625,-1.7880682081083954e-6
0.17558593749999837,-1.6106690709505322e-6
0.17558593749999837,-1.6106690709505322e-6
0.17578125,-1.723801203279418e-6
0.17578125,-1.723801203279418e-6
0.17597656249999835,-1.808888709431411e-6
0.17597656249999835,-1.808888709431411e-6
0.176,-1.7984901763412608e-6
0.176171875,-1.6685153487738802e-6
0.176171875,-1.6685153487738802e-6
0.17636718749999833,-1.6773962156491073e-6
0.17636718749999833,-1.6773962156491073e-6
0.1765625,-1.7946990090722537e-6
0.1765625,-1.7946990090722537e-6
0.1767578124999983,-1.7541541894039447e-6
0.1767578124999983,-1.7541541894039447e-6
0.176953125,-1.6956524547806495e-6
0.176953125,-1.6956524547806495e-6
0.177,-1.6988938325579461e-6
0.17714843749999828,-1.7486539323763317e-6
0.17714843749999828,-1.7486539323763317e-6
0.17734375,-1.772764390617354e-6
0.17734375,-1.772764390617354e-6
0.17753906249999826,-1.7275211648404287e-6
0.17753906249999826,-1.7275211648404287e-6
0.177734375,-1.8145152370641071e-6
0.177734375,-1.8145152370641071e-6
0.17792968749999824,-1.773435113039401e-6
0.17792968749999824,-1.773435113039401e-6
0.178,-1.7246076859933623e-6
0.178125,-1.7073468880357545e-6
0.178125,-1.7073468880357545e-6
0.17832031249999822,-1.902196282432822e-6
0.17832031249999822,-1.902196282432822e-6
0.178515625,-1.8359663764844214e-6
0.178515625,-1.8359663764844214e-6
0.1787109374999982,-1.6388849034543185e-6
0.1787109374999982,-1.6388849034543185e-6
0.17890625,-1.9016783215919375e-6
0.17890625,-1.9016783215919375e-6
0.179,-2.01899072294065e-6
0.17910156249999817,-1.984226458195959e-6
0.17910156249999817,-1.984226458195959e-6
0.179296875,-1.6681398795626023e-6
0.179296875,-1.6681398795626023e-6
0.17949218749999815,-1.8025778030228423e-6
0.17949218749999815,-1.8025778030228423e-6
0.1796875,-2.0456155832015988e-6
0.1796875,-2.0456155832015988e-6
0.17988281249999813,-1.8474656979794446e-6
0.17988281249999813,-1.8474656979794446e-6
0.18,-1.742286163730622e-6
0.180078125,-1.7626881217980284e-6
0.180078125,-1.7626881217980284e-6
0.1802734374999981,-1.9781317213141136e-6
0.1802734374999981,-1.9781317213141136e-6
0.18046875,-1.9912742986183396e-6
0.18046875,-1.9912742986183396e-6
0.18066406249999808,-1.8763460140625021e-6
0.18066406249999808,-1.8763460140625021e-6
0.180859375,-1.921580716157667e-6
0.180859375,-1.921580716157667e-6
0.181,-1.9822650227929728e-6
0.18105468749999806,-1.9966451159092458e-6
0.18105468749999806,-1.9966451159092458e-6
0.18125,-1.993308889447487e-6
0.18125,-1.993308889447487e-6
0.18144531249999804,-1.943062715448196e-6
0.18144531249999804,-1.943062715448196e-6
0.181640625,-2.03382994845569e-6
0.181640625,-2.03382994845569e-6
0.18183593749999802,-2.0536059484044245e-6
0.18183593749999802,-2.0536059484044245e-6
0.182,-1.9938479797199093e-6
0.18203125,-1.992935167782761e-6
0.18203125,-1.992935167782761e-6
0.182226562499998,-2.0652777982799186e-6
0.182226562499998,-2.0652777982799186e-6
0.182421875,-2.101479720906241e-6
0.182421875,-2.101479720906241e-6
0.18261718749999797,-2.053936090595787e-6
0.18261718749999797,-2.053936090595787e-6
0.1828125,-2.137946220337472e-6
0.1828125,-2.137946220337472e-6
0.183,-2.1505582694092418e-6
0.18300781249999795,-2.146563938265622e-6
0.18300781249999795,-2.146563938265622e-6
0.183203125,-2.068517381048629e-6
0.183203125,-2.068517381048629e-6
0.18339843749999793,-2.217316822095139e-6
0.18339843749999793,-2.217316822095139e-6
0.18359375,-2.22105447955645e-6
0.18359375,-2.22105447955645e-6
0.1837890624999979,-2.1041647691455445e-6
0.1837890624999979,-2.1041647691455445e-6
0.183984375,-2.2145128424910787e-6
0.183984375,-2.2145128424910787e-6
0.184,-2.223790492472677e-6
0.18417968749999789,-2.240810780540503e-6
0.18417968749999789,-2.240810780540503e-6
0.184375,-2.2133840953397765e-6
0.184375,-2.2133840953397765e-6
0.18457031249999786,-2.268564220586633e-6
0.18457031249999786,-2.268564220586633e-6
0.184765625,-2.2811697483748894e-6
0.184765625,-2.2811697483748894e-6
0.18496093749999784,-2.256200258177188e-6
0.18496093749999784,-2.256200258177188e-6
0.185,-2.2611948425899087e-6
0.18515625,-2.3162205023963267e-6
0.18515625,-2.3162205023963267e-6
0.18535156249999782,-2.3461534584545696e-6
0.18535156249999782,-2.3461534584545696e-6
0.185546875,-2.324163583367067e-6
0.185546875,-2.324163583367067e-6
0.1857421874999978,-2.3270005555242612e-6
0.1857421874999978,-2.3270005555242612e-6
0.1859375,-2.4087942397388318e-6
0.1859375,-2.4087942397388318e-6
0.186,-2.4271314226775864e-6
0.18613281249999777,-2.4040804770253388e-6
0.18613281249999777,-2.4040804770253388e-6
0.186328125,-2.3334462129209754e-6
0.186328125,-2.3334462129209754e-6
0.18652343749999775,-2.4273697981636033e-6
0.18652343749999775,-2.4273697981636033e-6
0.18671875,-2.5015260015637253e-6
0.18671875,-2.5015260015637253e-6
0.18691406249999773,-2.3794188698800234e-6
0.18691406249999773,-2.3794188698800234e-6
0.187,-2.35852365437772e-6
0.187109375,-2.407238194834793e-6
0.187109375,-2.407238194834793e-6
0.1873046874999977,-2.5393366150372465e-6
0.1873046874999977,-2.5393366150372465e-6
0.1875,-2.4979968924476736e-6
0.1875,-2.4979968924476736e-6
0.18769531249999769,-2.4459125518849767e-6
0.18769531249999769,-2.4459125518849767e-6
0.187890625,-2.506233651500267e-6
0.187890625,-2.506233651500267e-6
0.188,-2.547596895441373e-6
0.18808593749999766,-2.5649187307963395e-6
0.18808593749999766,-2.5649187307963395e-6
0.18828125,-2.544193227538294e-6
0.18828125,-2.544193227538294e-6
0.18847656249999764,-2.5004247533599866e-6
0.18847656249999764,-2.5004247533599866e-6
0.188671875,-2.583129243727278e-6
0.188671875,-2.583129243727278e-6
0.18886718749999762,-2.6116916814755697e-6
0.18886718749999762,-2.6116916814755697e-6
0.189,-2.551454590271618e-6
0.1890625,-2.5262356445621137e-6
0.1890625,-2.5262356445621137e-6
0.1892578124999976,-2.5821338755505074e-6
0.1892578124999976,-2.5821338755505074e-6
0.189453125,-2.6754267014594824e-6
0.189453125,-2.6754267014594824e-6
0.18964843749999757,-2.5709246471716796e-6
0.18964843749999757,-2.5709246471716796e-6
0.18984375,-2.570356972930732e-6
0.18984375,-2.570356972930732e-6
0.19,-2.687768413223157e-6
0.19003906249999755,-2.706162759769093e-6
0.19003906249999755,-2.706162759769093e-6
0.190234375,-2.65110513925082e-6
0.190234375,-2.65110513925082e-6
0.19042968749999753,-2.577201034248411e-6
0.19042968749999753,-2.577201034248411e-6
0.190625,-2.6626592202205757e-6
0.190625,-2.6626592202205757e-6
0.1908203124999975,-2.7462632496422223e-6
0.1908203124999975,-2.7462632496422223e-6
0.191,-2.6511255989958293e-6
0.191015625,-2.6398919244496888e-6
0.191015625,-2.6398919244496888e-6
0.19121093749999749,-2.6013617542286482e-6
0.19121093749999749,-2.6013617542286482e-6
0.19140625,-2.7346818328166655e-6
0.19140625,-2.7346818328166655e-6
0.19160156249999746,-2.777370811557489e-6
0.19160156249999746,-2.777370811557489e-6
0.191796875,-2.6008147946399163e-6
0.191796875,-2.6008147946399163e-6
0.19199218749999744,-2.637341939726312e-6
0.19199218749999744,-2.637341939726312e-6
0.192,-2.6444973220129953e-6
0.1921875,-2.814077452228947e-6
0.1921875,-2.814077452228947e-6
0.19238281249999742,-2.75343161026953e-6
0.19238281249999742,-2.75343161026953e-6
0.192578125,-2.5768123957936595e-6
0.192578125,-2.5768123957936595e-6
0.1927734374999974,-2.7146616429774006e-6
0.1927734374999974,-2.7146616429774006e-6
0.19296875,-2.8431708302134595e-6
0.19296875,-2.8431708302134595e-6
0.193,-2.829224422129517e-6
0.19316406249999737,-2.657766929703431e-6
0.19316406249999737,-2.657766929703431e-6
0.193359375,-2.6421400078358026e-6
0.193359375,-2.6421400078358026e-6
0.19355468749999735,-2.8043354738938042e-6
0.19355468749999735,-2.8043354738938042e-6
0.19375,-2.754027812190696e-6
0.19375,-2.754027812190696e-6
0.19394531249999733,-2.6375789187182974e-6
0.19394531249999733,-2.6375789187182974e-6
0.194,-2.6464462989372883e-6
0.194140625,-2.7346639128178474e-6
0.194140625,-2.7346639128178474e-6
0.1943359374999973,-2.7824011553656547e-6
0.1943359374999973,-2.7824011553656547e-6
0.19453125,-2.6878026286869527e-6
0.19453125,-2.6878026286869527e-6
0.19472656249999729,-2.71053953931899e-6
0.19472656249999729,-2.71053953931899e-6
0.194921875,-2.746500530392826e-6
0.194921875,-2.746500530392826e-6
0.195,-2.7260201441170473e-6
0.19511718749999726,-2.689589592430597e-6
0.19511718749999726,-2.689589592430597e-6
0.1953125,-2.7223261492292927e-6
0.1953125,-2.7223261492292927e-6
0.19550781249999724,-2.7526254369192316e-6
0.19550781249999724,-2.7526254369192316e-6
0.195703125,-2.6548917084756596e-6
0.195703125,-2.6548917084756596e-6
0.19589843749999722,-2.6861389237353706e-6
0.19589843749999722,-2.6861389237353706e-6
0.196,-2.736293911342891e-6
0.19609375,-2.7542500530830516e-6
0.19609375,-2.7542500530830516e-6
0.1962890624999972,-2.6824741571340738e-6
0.1962890624999972,-2.6824741571340738e-6
0.196484375,-2.6481158963420626e-6
0.196484375,-2.6481158963420626e-6
0.19667968749999717,-2.7002990924951398e-6
0.19667968749999717,-2.7002990924951398e-6
0.196875,-2.7104760150775675e-6
0.196875,-2.7104760150775675e-6
0.197,-2.668044960407734e-6
0.19707031249999715,-2.650669008286144e-6
0.19707031249999715,-2.650669008286144e-6
0.197265625,-2.6523986200732708e-6
0.197265625,-2.6523986200732708e-6
0.19746093749999713,-2.680392270359988e-6
0.19746093749999713,-2.680392270359988e-6
0.19765625,-2.6565249302556992e-6
0.19765625,-2.6565249302556992e-6
0.1978515624999971,-2.636568730063349e-6
0.1978515624999971,-2.636568730063349e-6
0.198,-2.654593894868551e-6
0.198046875,-2.655405150375767e-6
0.198046875,-2.655405150375767e-6
0.19824218749999709,-2.6082649697833915e-6
0.19824218749999709,-2.6082649697833915e-6
0.1984375,-2.6033584371587537e-6
0.1984375,-2.6033584371587537e-6
0.19863281249999706,-2.6428622359464526e-6
0.19863281249999706,-2.6428622359464526e-6
0.198828125,-2.6141532044055005e-6
0.198828125,-2.6141532044055005e-6
0.199,-2.5493012449362418e-6
0.19902343749999704,-2.547909253303171e-6
0.19902343749999704,-2.547909253303171e-6
0.19921875,-2.599621248211559e-6
0.19921875,-2.599621248211559e-6
0.19941406249999702,-2.6021320810309945e-6
0.19941406249999702,-2.6021320810309945e-6
0.199609375,-2.523619599459348e-6
0.199609375,-2.523619599459348e-6
0.199804687499997,-2.579534297997288e-6
0.199804687499997,-2.579534297997288e-6
0.2,-2.5768459903652285e-6
0.2,-2.5768459903652285e-6
0.2,-2.576845999302524e-6
0.20019531249999697,-2.466781188370515e-6
0.20019531249999697,-2.466781188370515e-6
0.200390625,-2.5502648452468968e-6
0.200390625,-2.5502648452468968e-6
0.20058593749999695,-2.5660183295972416e-6
0.20058593749999695,-2.5660183295972416e-6
0.20078125,-2.4312394116821068e-6
0.20078125,-2.4312394116821068e-6
0.20097656249999693,-2.482910515355652e-6
0.20097656249999693,-2.482910515355652e-6
0.201,-2.497361700215528e-6
0.201171875,-2.5411681234821515e-6
0.201171875,-2.5411681234821515e-6
0.2013671874999969,-2.4222275754604006e-6
0.2013671874999969,-2.4222275754604006e-6
0.2015625,-2.4277016230644932e-6
0.2015625,-2.4277016230644932e-6
0.20175781249999689,-2.4776221080879957e-6
0.20175781249999689,-2.4776221080879957e-6
0.201953125,-2.42255226923227e-6
0.201953125,-2.42255226923227e-6
0.202,-2.4086686342683628e-6
0.20214843749999686,-2.399106949768637e-6
0.20214843749999686,-2.399106949768637e-6
0.20234375,-2.4106864681683327e-6
0.20234375,-2.4106864681683327e-6
0.20253906249999684,-2.3958480602770393e-6
0.20253906249999684,-2.3958480602770393e-6
0.202734375,-2.369617739306218e-6
0.202734375,-2.369617739306218e-6
0.20292968749999682,-2.3802207212986204e-6
0.20292968749999682,-2.3802207212986204e-6
0.203,-2.381549994268095e-6
0.203125,-2.3641770331428447e-6
0.203125,-2.3641770331428447e-6
0.2033203124999968,-2.3115895593228686e-6
0.2033203124999968,-2.3115895593228686e-6
0.203515625,-2.3204544049582054e-6
0.203515625,-2.3204544049582054e-6
0.20371093749999677,-2.3577668357699366e-6
0.20371093749999677,-2.3577668357699366e-6
0.20390625,-2.292514020674208e-6
0.20390625,-2.292514020674208e-6
0.204,-2.2629004424179477e-6
0.20410156249999675,-2.2679634680278227e-6
0.20410156249999675,-2.2679634680278227e-6
0.204296875,-2.281424875627547e-6
0.204296875,-2.281424875627547e-6
0.20449218749999673,-2.2501621397275073e-6
0.20449218749999673,-2.2501621397275073e-6
0.2046875,-2.2627931172136684e-6
0.2046875,-2.2627931172136684e-6
0.2048828124999967,-2.251024626309661e-6
0.2048828124999967,-2.251024626309661e-6
0.205,-2.216414062949923e-6
0.205078125,-2.196970891710226e-6
0.205078125,-2.196970891710226e-6
0.20527343749999669,-2.191043015575822e-6
0.20527343749999669,-2.191043015575822e-6
0.20546875,-2.2445957742478484e-6
0.20546875,-2.2445957742478484e-6
0.20566406249999666,-2.198778394413292e-6
0.20566406249999666,-2.198778394413292e-6
0.205859375,-2.105341190383747e-6
0.205859375,-2.105341190383747e-6
0.206,-2.1527127858078643e-6
0.20605468749999664,-2.185020459177789e-6
0.20605468749999664,-2.185020459177789e-6
0.20625,-2.205479676942179e-6
0.20625,-2.205479676942179e-6
0.20644531249999662,-2.0863859770403614e-6
0.20644531249999662,-2.0863859770403614e-6
0.206640625,-2.0949383676138744e-6
0.206640625,-2.0949383676138744e-6
0.2068359374999966,-2.1555811025586458e-6
0.2068359374999966,-2.1555811025586458e-6
0.207,-2.123566269163213e-6
0.20703125,-2.1065382702079027e-6
0.20703125,-2.1065382702079027e-6
0.20722656249999657,-2.0334506491970217e-6
0.20722656249999657,-2.0334506491970217e-6
0.207421875,-2.098766411162689e-6
0.207421875,-2.098766411162689e-6
0.20761718749999655,-2.0965556980501177e-6
0.20761718749999655,-2.0965556980501177e-6
0.2078125,-2.006873500381978e-6
0.2078125,-2.006873500381978e-6
0.208,-2.033539144519203e-6
0.20800781249999653,-2.036091734713974e-6
0.20800781249999653,-2.036091734713974e-6
0.208203125,-2.062746523423531e-6
0.208203125,-2.062746523423531e-6
0.2083984374999965,-2.0035788723116177e-6
0.2083984374999965,-2.0035788723116177e-6
0.20859375,-2.0029485460204555e-6
0.20859375,-2.0029485460204555e-6
0.2087890624999965,-1.9994171774340153e-6
0.2087890624999965,-1.9994171774340153e-6
0.208984375,-1.9713311203983785e-6
0.208984375,-1.9713311203983785e-6
0.209,-1.969963563386301e-6
0.20917968749999646,-1.9881747811423267e-6
0.20917968749999646,-1.9881747811423267e-6
0.209375,-1.985256750658415e-6
0.209375,-1.985256750658415e-6
0.20957031249999644,-1.918589965843598e-6
0.20957031249999644,-1.918589965843598e-6
0.209765625,-1.9360696074666173e-6
0.209765625,-1.9360696074666173e-6
0.20996093749999642,-1.9774153518503645e-6
0.20996093749999642,-1.9774153518503645e-6
0.21,-1.972466655342231e-6
0.21015625,-1.9137545753111773e-6
0.21015625,-1.9137545753111773e-6
0.2103515624999964,-1.8755243990642434e-6
0.2103515624999964,-1.8755243990642434e-6
0.210546875,-1.941492203005879e-6
0.210546875,-1.941492203005879e-6
0.21074218749999638,-1.9090390723230932e-6
0.21074218749999638,-1.9090390723230932e-6
0.2109375,-1.8491856684232921e-6
0.2109375,-1.8491856684232921e-6
0.211,-1.8616522466929908e-6
0.21113281249999635,-1.910373639779639e-6
0.21113281249999635,-1.910373639779639e-6
0.211328125,-1.8911126552501045e-6
0.211328125,-1.8911126552501045e-6
0.21152343749999633,-1.8155978654954552e-6
0.21152343749999633,-1.8155978654954552e-6
0.21171875,-1.887335619343844e-6
0.21171875,-1.887335619343844e-6
0.2119140624999963,-1.8760298436393263e-6
0.2119140624999963,-1.8760298436393263e-6
0.212,-1.8138129405653736e-6
0.212109375,-1.7730966488382904e-6
0.212109375,-1.7730966488382904e-6
0.2123046874999963,-1.88566714448557e-6
0.2123046874999963,-1.88566714448557e-6
0.2125,-1.9033712789773283e-6
0.2125,-1.9033712789773283e-6
0.21269531249999626,-1.7117515021536356e-6
0.21269531249999626,-1.7117515021536356e-6
0.212890625,-1.7956296740617717e-6
0.212890625,-1.7956296740617717e-6
0.213,-1.895343166469221e-6
0.21308593749999624,-1.9212310661265164e-6
0.21308593749999624,-1.9212310661265164e-6
0.21328125,-1.7750852878695156e-6
0.21328125,-1.7750852878695156e-6
0.21347656249999622,-1.7119312766267214e-6
0.21347656249999622,-1.7119312766267214e-6
0.213671875,-1.8508967055685943e-6
0.213671875,-1.8508967055685943e-6
0.2138671874999962,-1.85795556811863e-6
0.2138671874999962,-1.85795556811863e-6
0.214,-1.7428927769347347e-6
0.2140625,-1.696201181622392e-6
0.2140625,-1.696201181622392e-6
0.21425781249999618,-1.731771228197232e-6
0.21425781249999618,-1.731771228197232e-6
0.214453125,-1.8811407362928634e-6
0.214453125,-1.8811407362928634e-6
0.21464843749999615,-1.7870424877108881e-6
0.21464843749999615,-1.7870424877108881e-6
0.21484375,-1.647183991093648e-6
0.21484375,-1.647183991093648e-6
0.215,-1.787877019987505e-6
0.21503906249999613,-1.8299820157552382e-6
0.21503906249999613,-1.8299820157552382e-6
0.215234375,-1.8382965951135866e-6
0.215234375,-1.8382965951135866e-6
0.2154296874999961,-1.648916667873479e-6
0.2154296874999961,-1.648916667873479e-6
0.215625,-1.7552873034509808e-6
0.215625,-1.7552873034509808e-6
0.2158203124999961,-1.8090403022252843e-6
0.2158203124999961,-1.8090403022252843e-6
0.216,-1.7029837207083176e-6
0.216015625,-1.6998056297512498e-6
0.216015625,-1.6998056297512498e-6
0.21621093749999606,-1.764626668177005e-6
0.21621093749999606,-1.764626668177005e-6
0.21640625,-1.7720176599400617e-6
0.21640625,-1.7720176599400617e-6
0.21660156249999604,-1.6687312405228028e-6
0.21660156249999604,-1.6687312405228028e-6
0.216796875,-1.7669262004638142e-6
0.216796875,-1.7669262004638142e-6
0.21699218749999602,-1.8074380355170838e-6
0.21699218749999602,-1.8074380355170838e-6
0.217,-1.802741027789878e-6
0.2171875,-1.6558874208483232e-6
0.2171875,-1.6558874208483232e-6
0.217382812499996,-1.7604334540677335e-6
0.217382812499996,-1.7604334540677335e-6
0.217578125,-1.8204695509393964e-6
0.217578125,-1.8204695509393964e-6
0.21777343749999598,-1.6458578413480751e-6
0.21777343749999598,-1.6458578413480751e-6
0.21796875,-1.7205016292765052e-6
0.21796875,-1.7205016292765052e-6
0.218,-1.7467293516593152e-6
0.21816406249999595,-1.80137552391324e-6
0.21816406249999595,-1.80137552391324e-6
0.218359375,-1.7004276463561396e-6
0.218359375,-1.7004276463561396e-6
0.21855468749999593,-1.7195692902927107e-6
0.21855468749999593,-1.7195692902927107e-6
0.21875,-1.743897510286807e-6
0.21875,-1.743897510286807e-6
0.2189453124999959,-1.7204082538579968e-6
0.2189453124999959,-1.7204082538579968e-6
0.219,-1.722311960050682e-6
0.219140625,-1.7535399212675884e-6
0.219140625,-1.7535399212675884e-6
0.2193359374999959,-1.7494865980349772e-6
0.2193359374999959,-1.7494865980349772e-6
0.21953125,-1.6999731783928773e-6
0.21953125,-1.6999731783928773e-6
0.21972656249999586,-1.788862161289373e-6
0.21972656249999586,-1.788862161289373e-6
0.219921875,-1.7845872671284901e-6
0.219921875,-1.7845872671284901e-6
0.22,-1.7299039798968074e-6
0.22011718749999584,-1.6598345675133963e-6
0.22011718749999584,-1.6598345675133963e-6
0.2203125,-1.7640034484789346e-6
0.2203125,-1.7640034484789346e-6
0.22050781249999582,-1.8514648665868272e-6
0.22050781249999582,-1.8514648665868272e-6
0.220703125,-1.6573946737263867e-6
0.220703125,-1.6573946737263867e-6
0.2208984374999958,-1.6845689034261646e-6
0.2208984374999958,-1.6845689034261646e-6
0.221,-1.7967772070193178e-6
0.22109375,-1.8683888265424997e-6
0.22109375,-1.8683888265424997e-6
0.22128906249999578,-1.7501784790874275e-6
0.22128906249999578,-1.7501784790874275e-6
0.221484375,-1.6349909858770495e-6
0.221484375,-1.6349909858770495e-6
0.22167968749999575,-1.8733979036400505e-6
0.22167968749999575,-1.8733979036400505e-6
0.221875,-1.8064456933641893e-6
0.221875,-1.8064456933641893e-6
0.222,-1.6362043424034134e-6
0.22207031249999573,-1.6097881421206495e-6
0.22207031249999573,-1.6097881421206495e-6
0.222265625,-1.8379499499565632e-6
0.222265625,-1.8379499499565632e-6
0.2224609374999957,-1.855170743692014e-6
0.2224609374999957,-1.855170743692014e-6
0.22265625,-1.657744218619417e-6
0.22265625,-1.657744218619417e-6
0.2228515624999957,-1.8158760672348784e-6
0.2228515624999957,-1.8158760672348784e-6
0.223,-1.8549437381110145e-6
0.223046875,-1.8203829828533635e-6
0.223046875,-1.8203829828533635e-6
0.22324218749999566,-1.6934051849659681e-6
0.22324218749999566,-1.6934051849659681e-6
0.2234375,-1.861795209445738e-6
0.2234375,-1.861795209445738e-6
0.22363281249999564,-1.797282582316484e-6
0.22363281249999564,-1.797282582316484e-6
0.223828125,-1.662601545326936e-6
0.223828125,-1.662601545326936e-6
0.224,-1.8789734324009544e-6
0.22402343749999562,-1.9083521692886407e-6
0.22402343749999562,-1.9083521692886407e-6
0.22421875,-1.8480875112469874e-6
0.22421875,-1.8480875112469874e-6
0.2244140624999956,-1.6343148510067351e-6
0.2244140624999956,-1.6343148510067351e-6
0.224609375,-1.8893475271508642e-6
0.224609375,-1.8893475271508642e-6
0.22480468749999558,-1.9133412864080768e-6
0.22480468749999558,-1.9133412864080768e-6
0.225,-1.6611621507789387e-6
0.225,-1.6611621507789387e-6
0.225,-1.6611620845541353e-6
0.22519531249999555,-1.8177224644921885e-6
0.22519531249999555,-1.8177224644921885e-6
0.225390625,-1.9349253617129136e-6
0.225390625,-1.9349253617129136e-6
0.22558593749999553,-1.7390241799364325e-6
0.22558593749999553,-1.7390241799364325e-6
0.22578125,-1.7866632407992356e-6
0.22578125,-1.7866632407992356e-6
0.2259765624999955,-1.8907472574825057e-6
0.2259765624999955,-1.8907472574825057e-6
0.226,-1.887095785135795e-6
0.226171875,-1.803989618187618e-6
0.226171875,-1.803989618187618e-6
0.2263671874999955,-1.8203656995119388e-6
0.2263671874999955,-1.8203656995119388e-6
0.2265625,-1.85701219107548e-6
0.2265625,-1.85701219107548e-6
0.22675781249999546,-1.8215565638080022e-6
0.22675781249999546,-1.8215565638080022e-6
0.226953125,-1.865657017985356e-6
0.226953125,-1.865657017985356e-6
0.227,-1.8792164152015012e-6
0.22714843749999544,-1.8658424986717215e-6
0.22714843749999544,-1.8658424986717215e-6
0.22734375,-1.798981130840538e-6
0.22734375,-1.798981130840538e-6
0.22753906249999542,-1.888196039079304e-6
0.22753906249999542,-1.888196039079304e-6
0.227734375,-1.890422286821014e-6
0.227734375,-1.890422286821014e-6
0.2279296874999954,-1.7791064961802938e-6
0.2279296874999954,-1.7791064961802938e-6
0.228,-1.8075015594809507e-6
0.228125,-1.90892094492634e-6
0.228125,-1.90892094492634e-6
0.22832031249999538,-1.9051972554029462e-6
0.22832031249999538,-1.9051972554029462e-6
0.228515625,-1.7931112623048584e-6
0.228515625,-1.7931112623048584e-6
0.22871093749999535,-1.8760103468462574e-6
0.22871093749999535,-1.8760103468462574e-6
0.22890625,-1.8964053938863579e-6
0.22890625,-1.8964053938863579e-6
0.229,-1.870267514247903e-6
0.22910156249999533,-1.8641825407783585e-6
0.22910156249999533,-1.8641825407783585e-6
0.229296875,-1.8852652665102276e-6
0.229296875,-1.8852652665102276e-6
0.2294921874999953,-1.8622825148084665e-6
0.2294921874999953,-1.8622825148084665e-6
0.2296875,-1.8807298643452874e-6
0.2296875,-1.8807298643452874e-6
0.2298828124999953,-1.9048336074578565e-6
0.2298828124999953,-1.9048336074578565e-6
0.23,-1.888867439459041e-6
0.230078125,-1.872256664148253e-6
0.230078125,-1.872256664148253e-6
0.23027343749999526,-1.8688870352390197e-6
0.23027343749999526,-1.8688870352390197e-6
0.23046875,-1.9409680817594754e-6
0.23046875,-1.9409680817594754e-6
0.23066406249999524,-1.8814142274115042e-6
0.23066406249999524,-1.8814142274115042e-6
0.230859375,-1.8402390271621272e-6
0.230859375,-1.8402390271621272e-6
0.231,-1.927805017121198e-6
0.23105468749999522,-1.9637257683280396e-6
0.23105468749999522,-1.9637257683280396e-6
0.23125,-1.9340911493470614e-6
0.23125,-1.9340911493470614e-6
0.2314453124999952,-1.7893397203372352e-6
0.2314453124999952,-1.7893397203372352e-6
0.231640625,-1.9399949210963108e-6
0.231640625,-1.9399949210963108e-6
0.23183593749999518,-1.9862080556931616e-6
0.23183593749999518,-1.9862080556931616e-6
0.232,-1.8235097007934797e-6
0.23203125,-1.8019292730708791e-6
0.23203125,-1.8019292730708791e-6
0.23222656249999515,-1.8890242692859438e-6
0.23222656249999515,-1.8890242692859438e-6
0.232421875,-1.996978525153903e-6
0.232421875,-1.996978525153903e-6
0.23261718749999513,-1.864947134888606e-6
0.23261718749999513,-1.864947134888606e-6
0.2328125,-1.8493898054638969e-6
0.2328125,-1.8493898054638969e-6
0.233,-1.9467399582362432e-6
0.2330078124999951,-1.949158459357836e-6
0.2330078124999951,-1.949158459357836e-6
0.233203125,-1.9180529012841063e-6
0.233203125,-1.9180529012841063e-6
0.2333984374999951,-1.8673673317093353e-6
0.2333984374999951,-1.8673673317093353e-6
0.23359375,-1.911453983649558e-6
0.23359375,-1.911453983649558e-6
0.23378906249999507,-1.920992006243516e-6
0.23378906249999507,-1.920992006243516e-6
0.233984375,-1.8912081415356496e-6
0.233984375,-1.8912081415356496e-6
0.234,-1.8907493583575352e-6
0.23417968749999504,-1.920507503305746e-6
0.23417968749999504,-1.920507503305746e-6
0.234375,-1.8986959747779864e-6
0.234375,-1.8986959747779864e-6
0.23457031249999502,-1.874119786526851e-6
0.23457031249999502,-1.874119786526851e-6
0.234765625,-1.949679613866273e-6
0.234765625,-1.949679613866273e-6
0.234960937499995,-1.910294359641629e-6
0.234960937499995,-1.910294359641629e-6
0.235,-1.8896776088905831e-6
0.23515625,-1.8537827231046577e-6
0.23515625,-1.8537827231046577e-6
0.23535156249999498,-1.914958161708391e-6
0.23535156249999498,-1.914958161708391e-6
0.235546875,-1.924135006659e-6
0.235546875,-1.924135006659e-6
0.23574218749999495,-1.8792213034579675e-6
0.23574218749999495,-1.8792213034579675e-6
0.2359375,-1.8966248337970448e-6
0.2359375,-1.8966248337970448e-6
0.236,-1.8999311562351018e-6
0.23613281249999493,-1.8931579046643776e-6
0.23613281249999493,-1.8931579046643776e-6
0.236328125,-1.8829188752622628e-6
0.236328125,-1.8829188752622628e-6
0.2365234374999949,-1.9264062499635415e-6
0.2365234374999949,-1.9264062499635415e-6
0.23671875,-1.8894294424032232e-6
0.23671875,-1.8894294424032232e-6
0.2369140624999949,-1.8362023404550065e-6
0.2369140624999949,-1.8362023404550065e-6
0.237,-1.8717304152149339e-6
0.237109375,-1.9376233212908822e-6
0.237109375,-1.9376233212908822e-6
0.23730468749999487,-1.914727544405359e-6
0.23730468749999487,-1.914727544405359e-6
0.2375,-1.8048517431146216e-6
0.2375,-1.8048517431146216e-6
0.23769531249999484,-1.9273706064470986e-6
0.23769531249999484,-1.9273706064470986e-6
0.237890625,-1.9239348629240816e-6
0.237890625,-1.9239348629240816e-6
0.238,-1.8260089330590645e-6
0.23808593749999482,-1.7810093383419101e-6
0.23808593749999482,-1.7810093383419101e-6
0.23828125,-1.8985700216966883e-6
0.23828125,-1.8985700216966883e-6
0.2384765624999948,-1.9348674867858406e-6
0.2384765624999948,-1.9348674867858406e-6
0.238671875,-1.7942322960706747e-6
0.238671875,-1.7942322960706747e-6
0.23886718749999478,-1.8406957387195888e-6
0.23886718749999478,-1.8406957387195888e-6
0.239,-1.9153429794971366e-6
0.2390625,-1.9207153189593207e-6
0.2390625,-1.9207153189593207e-6
0.23925781249999475,-1.8368881857799835e-6
0.23925781249999475,-1.8368881857799835e-6
0.239453125,-1.8188914407413215e-6
0.239453125,-1.8188914407413215e-6
0.23964843749999473,-1.8759473322527143e-6
0.23964843749999473,-1.8759473322527143e-6
0.23984375,-1.876132423195287e-6
0.23984375,-1.876132423195287e-6
0.24,-1.8128938174544196e-6
0.2400390624999947,-1.8038269303799481e-6
0.2400390624999947,-1.8038269303799481e-6
0.240234375,-1.8432932432643767e-6
0.240234375,-1.8432932432643767e-6
0.2404296874999947,-1.8938459523387685e-6
0.2404296874999947,-1.8938459523387685e-6
0.240625,-1.7954224824090481e-6
0.240625,-1.7954224824090481e-6
0.24082031249999467,-1.7828392376850744e-6
0.24082031249999467,-1.7828392376850744e-6
0.241,-1.9233983692967804e-6
0.241015625,-1.928268484552298e-6
0.241015625,-1.928268484552298e-6
0.24121093749999464,-1.7938532955175113e-6
0.24121093749999464,-1.7938532955175113e-6
0.24140625,-1.7128585970138666e-6
0.24140625,-1.7128585970138666e-6
0.24160156249999462,-1.9211420670961488e-6
0.24160156249999462,-1.9211420670961488e-6
0.241796875,-1.830910366373839e-6
0.241796875,-1.830910366373839e-6
0.2419921874999946,-1.6807988628131376e-6
0.2419921874999946,-1.6807988628131376e-6
0.242,-1.6836131879194305e-6
0.2421875,-1.8676316259624848e-6
0.2421875,-1.8676316259624848e-6
0.24238281249999458,-1.8573712942671072e-6
0.24238281249999458,-1.8573712942671072e-6
0.242578125,-1.6980553756984484e-6
0.242578125,-1.6980553756984484e-6
0.24277343749999455,-1.7925226942772099e-6
0.24277343749999455,-1.7925226942772099e-6
0.24296875,-1.8193198941807154e-6
0.24296875,-1.8193198941807154e-6
0.243,-1.8076202875083602e-6
0.24316406249999453,-1.7603242893904358e-6
0.24316406249999453,-1.7603242893904358e-6
0.243359375,-1.7821568338294291e-6
0.243359375,-1.7821568338294291e-6
0.2435546874999945,-1.7527733693345482e-6
0.2435546874999945,-1.7527733693345482e-6
0.24375,-1.760497427172325e-6
0.24375,-1.760497427172325e-6
0.2439453124999945,-1.8020484639502676e-6
0.2439453124999945,-1.8020484639502676e-6
0.244,-1.7926958311154095e-6
0.244140625,-1.7330460769238165e-6
0.244140625,-1.7330460769238165e-6
0.24433593749999447,-1.7329063688453772e-6
0.24433593749999447,-1.7329063688453772e-6
0.24453125,-1.7899657847042505e-6
0.24453125,-1.7899657847042505e-6
0.24472656249999444,-1.7126702044900632e-6
0.24472656249999444,-1.7126702044900632e-6
0.244921875,-1.7287223825213083e-6
0.244921875,-1.7287223825213083e-6
0.245,-1.7598749365577149e-6
0.24511718749999442,-1.7770298456065703e-6
0.24511718749999442,-1.7770298456065703e-6
0.2453125,-1.7040514324606626e-6
0.2453125,-1.7040514324606626e-6
0.2455078124999944,-1.7135092196252089e-6
0.2455078124999944,-1.7135092196252089e-6
0.245703125,-1.7600417240304367e-6
0.245703125,-1.7600417240304367e-6
0.24589843749999438,-1.6787608427826228e-6
0.24589843749999438,-1.6787608427826228e-6
0.246,-1.664146420332635e-6
0.24609375,-1.6983453577923413e-6
0.24609375,-1.6983453577923413e-6
0.24628906249999435,-1.746491268272976e-6
0.24628906249999435,-1.746491268272976e-6
0.246484375,-1.6693878620577252e-6
0.246484375,-1.6693878620577252e-6
0.24667968749999433,-1.6844453102904389e-6
0.24667968749999433,-1.6844453102904389e-6
0.246875,-1.7254232162478012e-6
0.246875,-1.7254232162478012e-6
0.247,-1.6988988769117697e-6
0.2470703124999943,-1.6781215746997091e-6
0.2470703124999943,-1.6781215746997091e-6
0.247265625,-1.6700188662510662e-6
0.247265625,-1.6700188662510662e-6
0.2474609374999943,-1.6686545197819314e-6
0.2474609374999943,-1.6686545197819314e-6
0.24765625,-1.6789535821626345e-6
0.24765625,-1.6789535821626345e-6
0.24785156249999427,-1.7137304171854773e-6
0.24785156249999427,-1.7137304171854773e-6
0.248,-1.6617848975220006e-6
0.248046875,-1.6359813099775522e-6
0.248046875,-1.6359813099775522e-6
0.24824218749999424,-1.622399933842722e-6
0.24824218749999424,-1.622399933842722e-6
0.2484375,-1.7082214794905681e-6
0.2484375,-1.7082214794905681e-6
0.24863281249999422,-1.655480076967475e-6
0.24863281249999422,-1.655480076967475e-6
0.248828125,-1.6064063962373254e-6
0.248828125,-1.6064063962373254e-6
0.249,-1.6604278136322925e-6
0.2490234374999942,-1.6657778069695262e-6
0.2490234374999942,-1.6657778069695262e-6
0.24921875,-1.644999240713041e-6
0.24921875,-1.644999240713041e-6
0.24941406249999418,-1.6128878325138984e-6
0.24941406249999418,-1.6128878325138984e-6
0.249609375,-1.6430607109874096e-6
0.249609375,-1.6430607109874096e-6
0.24980468749999415,-1.6442277653849757e-6
0.24980468749999415,-1.6442277653849757e-6
0.25,-1.5907789959745955e-6
0.25,-1.5907789959745955e-6
0.25,-1.590778958393546e-6
0.25019531249999416,-1.6349838998230837e-6
0.25019531249999416,-1.6349838998230837e-6
0.250390625,-1.6367773869041535e-6
0.250390625,-1.6367773869041535e-6
0.25058593749999414,-1.5822526384101643e-6
0.25058593749999414,-1.5822526384101643e-6
0.25078125,-1.6204326994118112e-6
0.25078125,-1.6204326994118112e-6
0.2509765624999941,-1.5885170109308788e-6
0.2509765624999941,-1.5885170109308788e-6
0.251,-1.5827408007540456e-6
0.251171875,-1.591529297462202e-6
0.251171875,-1.591529297462202e-6
0.2513671874999941,-1.633612657092609e-6
0.2513671874999941,-1.633612657092609e-6
0.2515625,-1.5764549491925628e-6
0.2515625,-1.5764549491925628e-6
0.25175781249999407,-1.5478626740339507e-6
0.25175781249999407,-1.5478626740339507e-6
0.251953125,-1.6303773008319311e-6
0.251953125,-1.6303773008319311e-6
0.252,-1.6373301900407533e-6
0.25214843749999405,-1.5883496305990619e-6
0.25214843749999405,-1.5883496305990619e-6
0.25234375,-1.5306194365849457e-6
0.25234375,-1.5306194365849457e-6
0.252539062499994,-1.6098315358537008e-6
0.252539062499994,-1.6098315358537008e-6
0.252734375,-1.6191609313320754e-6
0.252734375,-1.6191609313320754e-6
0.252929687499994,-1.491473637593721e-6
0.252929687499994,-1.491473637593721e-6
0.253,-1.4905168648216005e-6
0.253125,-1.5705515615249688e-6
0.253125,-1.5705515615249688e-6
0.253320312499994,-1.658621577860231e-6
0.253320312499994,-1.658621577860231e-6
0.253515625,-1.5041807271409802e-6
0.253515625,-1.5041807271409802e-6
0.25371093749999396,-1.4858321142896536e-6
0.25371093749999396,-1.4858321142896536e-6
0.25390625,-1.6388219355456535e-6
0.25390625,-1.6388219355456535e-6
0.254,-1.6423357768746705e-6
0.25410156249999394,-1.570156475505513e-6
0.25410156249999394,-1.570156475505513e-6
0.254296875,-1.4563207784146215e-6
0.254296875,-1.4563207784146215e-6
0.2544921874999939,-1.5785079506835942e-6
0.2544921874999939,-1.5785079506835942e-6
0.2546875,-1.6023655876606924e-6
0.2546875,-1.6023655876606924e-6
0.2548828124999939,-1.4672750938138357e-6
0.2548828124999939,-1.4672750938138357e-6
0.255,-1.487922372200856e-6
0.255078125,-1.5466209327685831e-6
0.255078125,-1.5466209327685831e-6
0.25527343749999387,-1.6075992689823515e-6
0.25527343749999387,-1.6075992689823515e-6
0.25546875,-1.4714010165839397e-6
0.25546875,-1.4714010165839397e-6
0.25566406249999385,-1.5137034471424116e-6
0.25566406249999385,-1.5137034471424116e-6
0.255859375,-1.5965757274027936e-6
0.255859375,-1.5965757274027936e-6
0.256,-1.5359861137986819e-6
0.2560546874999938,-1.5037688467223198e-6
0.2560546874999938,-1.5037688467223198e-6
0.25625,-1.4866721860795629e-6
0.25625,-1.4866721860795629e-6
0.2564453124999938,-1.5335132540483798e-6
0.2564453124999938,-1.5335132540483798e-6
0.256640625,-1.5234689997312145e-6
0.256640625,-1.5234689997312145e-6
0.2568359374999938,-1.5303883255102235e-6
0.2568359374999938,-1.5303883255102235e-6
0.257,-1.5151086699694005e-6
0.25703125,-1.5057867735479569e-6
0.25703125,-1.5057867735479569e-6
0.25722656249999376,-1.4791816734804897e-6
0.25722656249999376,-1.4791816734804897e-6
0.257421875,-1.565482714405153e-6
0.257421875,-1.565482714405153e-6
0.25761718749999374,-1.5244272566494743e-6
0.25761718749999374,-1.5244272566494743e-6
0.2578125,-1.4514527112985398e-6
0.2578125,-1.4514527112985398e-6
0.258,-1.53912534994749e-6
0.2580078124999937,-1.5436575585558998e-6
0.2580078124999937,-1.5436575585558998e-6
0.258203125,-1.5662546542505318e-6
0.258203125,-1.5662546542505318e-6
0.2583984374999937,-1.43587194839645e-6
0.2583984374999937,-1.43587194839645e-6
0.25859375,-1.4906191384000955e-6
0.25859375,-1.4906191384000955e-6
0.25878906249999367,-1.6041088198304188e-6
0.25878906249999367,-1.6041088198304188e-6
0.258984375,-1.4486085138099014e-6
0.258984375,-1.4486085138099014e-6
0.259,-1.4332435622765871e-6
0.25917968749999365,-1.4292267157545169e-6
0.25917968749999365,-1.4292267157545169e-6
0.259375,-1.6251230898767233e-6
0.259375,-1.6251230898767233e-6
0.2595703124999936,-1.4712351047441175e-6
0.2595703124999936,-1.4712351047441175e-6
0.259765625,-1.3965159661455395e-6
0.259765625,-1.3965159661455395e-6
0.2599609374999936,-1.6015892411735955e-6
0.2599609374999936,-1.6015892411735955e-6
0.26,-1.614463801480337e-6
0.26015625,-1.507399459865777e-6
0.26015625,-1.507399459865777e-6
0.2603515624999936,-1.4127218728177127e-6
0.2603515624999936,-1.4127218728177127e-6
0.260546875,-1.5517768038320057e-6
0.260546875,-1.5517768038320057e-6
0.26074218749999356,-1.5023937906533114e-6
0.26074218749999356,-1.5023937906533114e-6
0.2609375,-1.4537519700263957e-6
0.2609375,-1.4537519700263957e-6
0.261,-1.4870252535437167e-6
0.26113281249999354,-1.54972440052914e-6
0.26113281249999354,-1.54972440052914e-6
0.261328125,-1.455423434326697e-6
0.261328125,-1.455423434326697e-6
0.2615234374999935,-1.4562182841793003e-6
0.2615234374999935,-1.4562182841793003e-6
0.26171875,-1.5953204783314412e-6
0.26171875,-1.5953204783314412e-6
0.2619140624999935,-1.426899526979497e-6
0.2619140624999935,-1.426899526979497e-6
0.262,-1.3673756534826609e-6
0.262109375,-1.4294538583370375e-6
0.262109375,-1.4294538583370375e-6
0.26230468749999347,-1.6294169830621819e-6
0.26230468749999347,-1.6294169830621819e-6
0.2625,-1.4426330424144318e-6
0.2625,-1.4426330424144318e-6
0.26269531249999345,-1.3884963225851976e-6
0.26269531249999345,-1.3884963225851976e-6
0.262890625,-1.6170197174036893e-6
0.262890625,-1.6170197174036893e-6
0.263,-1.588972049992865e-6
0.2630859374999934,-1.4856594203194184e-6
0.2630859374999934,-1.4856594203194184e-6
0.26328125,-1.3874177447470437e-6
0.26328125,-1.3874177447470437e-6
0.2634765624999934,-1.5751438048328126e-6
0.2634765624999934,-1.5751438048328126e-6
0.263671875,-1.497795140470437e-6
0.263671875,-1.497795140470437e-6
0.2638671874999934,-1.4122224730184207e-6
0.2638671874999934,-1.4122224730184207e-6
0.264,-1.5163470689638636e-6
0.2640625,-1.5574681327401585e-6
0.2640625,-1.5574681327401585e-6
0.26425781249999336,-1.4785297077768433e-6
0.26425781249999336,-1.4785297077768433e-6
0.264453125,-1.4325306159634899e-6
0.264453125,-1.4325306159634899e-6
0.26464843749999334,-1.5738911604556982e-6
0.26464843749999334,-1.5738911604556982e-6
0.26484375,-1.4533365171320867e-6
0.26484375,-1.4533365171320867e-6
0.265,-1.3985128234916822e-6
0.2650390624999933,-1.4252515538881738e-6
0.2650390624999933,-1.4252515538881738e-6
0.265234375,-1.6014947404885405e-6
0.265234375,-1.6014947404885405e-6
0.2654296874999933,-1.4448737256644861e-6
0.2654296874999933,-1.4448737256644861e-6
0.265625,-1.4080779529024312e-6
0.265625,-1.4080779529024312e-6
0.26582031249999327,-1.6166426769492759e-6
0.26582031249999327,-1.6166426769492759e-6
0.266,-1.4722912657361142e-6
0.266015625,-1.4509390960926183e-6
0.266015625,-1.4509390960926183e-6
0.26621093749999325,-1.391153165719583e-6
0.26621093749999325,-1.391153165719583e-6
0.26640625,-1.616184928332487e-6
0.26640625,-1.616184928332487e-6
0.2666015624999932,-1.47584942744583e-6
0.2666015624999932,-1.47584942744583e-6
0.266796875,-1.3756925664187847e-6
0.266796875,-1.3756925664187847e-6
0.2669921874999932,-1.5966608887807432e-6
0.2669921874999932,-1.5966608887807432e-6
0.267,-1.6016033173027466e-6
0.2671875,-1.4962791391459618e-6
0.2671875,-1.4962791391459618e-6
0.2673828124999932,-1.3887308192850334e-6
0.2673828124999932,-1.3887308192850334e-6
0.267578125,-1.5773076172953537e-6
0.267578125,-1.5773076172953537e-6
0.26777343749999316,-1.4882194839249685e-6
0.26777343749999316,-1.4882194839249685e-6
0.26796875,-1.4069189578913566e-6
0.26796875,-1.4069189578913566e-6
0.268,-1.4297257382445139e-6
0.26816406249999314,-1.5788045223952274e-6
0.26816406249999314,-1.5788045223952274e-6
0.268359375,-1.4715958568389809e-6
0.268359375,-1.4715958568389809e-6
0.2685546874999931,-1.4127404687758194e-6
0.2685546874999931,-1.4127404687758194e-6
0.26875,-1.5813809407516644e-6
0.26875,-1.5813809407516644e-6
0.2689453124999931,-1.4777159895729142e-6
0.2689453124999931,-1.4777159895729142e-6
0.269,-1.4242881701265198e-6
0.269140625,-1.4066891253494695e-6
0.269140625,-1.4066891253494695e-6
0.26933593749999307,-1.5791989630420389e-6
0.26933593749999307,-1.5791989630420389e-6
0.26953125,-1.4815594274186772e-6
0.26953125,-1.4815594274186772e-6
0.26972656249999305,-1.4067073518253537e-6
0.26972656249999305,-1.4067073518253537e-6
0.269921875,-1.577697310628512e-6
0.269921875,-1.577697310628512e-6
0.27,-1.5779671916904547e-6
0.27011718749999303,-1.4777513186459146e-6
0.27011718749999303,-1.4777513186459146e-6
0.2703125,-1.4080543197514395e-6
0.2703125,-1.4080543197514395e-6
0.270507812499993,-1.585176029494928e-6
0.270507812499993,-1.585176029494928e-6
0.270703125,-1.4656963410741852e-6
0.270703125,-1.4656963410741852e-6
0.270898437499993,-1.4027236354685613e-6
0.270898437499993,-1.4027236354685613e-6
0.271,-1.5166834222979375e-6
0.27109375,-1.6015193527452176e-6
0.27109375,-1.6015193527452176e-6
0.27128906249999296,-1.4609715639490872e-6
0.27128906249999296,-1.4609715639490872e-6
0.271484375,-1.3883105494660875e-6
0.271484375,-1.3883105494660875e-6
0.27167968749999294,-1.611491749320404e-6
0.27167968749999294,-1.611491749320404e-6
0.271875,-1.4682604413951417e-6
0.271875,-1.4682604413951417e-6
0.272,-1.355482156295551e-6
0.2720703124999929,-1.3819801948922183e-6
0.2720703124999929,-1.3819801948922183e-6
0.272265625,-1.583572599050953e-6
0.272265625,-1.583572599050953e-6
0.2724609374999929,-1.5134373581027205e-6
0.2724609374999929,-1.5134373581027205e-6
0.27265625,-1.3761860800931558e-6
0.27265625,-1.3761860800931558e-6
0.2728515624999929,-1.5294936214771404e-6
0.2728515624999929,-1.5294936214771404e-6
0.273,-1.5583314845191154e-6
0.273046875,-1.5298932521390363e-6
0.273046875,-1.5298932521390363e-6
0.27324218749999285,-1.4156789353014787e-6
0.27324218749999285,-1.4156789353014787e-6
0.2734375,-1.496950395696306e-6
0.2734375,-1.496950395696306e-6
0.27363281249999283,-1.5357457056053292e-6
0.27363281249999283,-1.5357457056053292e-6
0.273828125,-1.4332882127265911e-6
0.273828125,-1.4332882127265911e-6
0.274,-1.4490405479961055e-6
0.2740234374999928,-1.459871063591578e-6
0.2740234374999928,-1.459871063591578e-6
0.27421875,-1.5264116606239497e-6
0.27421875,-1.5264116606239497e-6
0.2744140624999928,-1.477943500027834e-6
0.2744140624999928,-1.477943500027834e-6
0.274609375,-1.4449191386156635e-6
0.274609375,-1.4449191386156635e-6
0.27480468749999276,-1.4726113389262885e-6
0.27480468749999276,-1.4726113389262885e-6
0.275,-1.4800813842308358e-6
0.275,-1.4800813842308358e-6
0.275,-1.4800814263082884e-6
0.27519531249999274,-1.4848774300135759e-6
0.27519531249999274,-1.4848774300135759e-6
0.275390625,-1.4757930918984918e-6
0.275390625,-1.4757930918984918e-6
0.2755859374999927,-1.449797382813145e-6
0.2755859374999927,-1.449797382813145e-6
0.27578125,-1.497756590196353e-6
0.27578125,-1.497756590196353e-6
0.2759765624999927,-1.463552783409483e-6
0.2759765624999927,-1.463552783409483e-6
0.276,-1.454098526365577e-6
0.276171875,-1.4475641293421049e-6
0.276171875,-1.4475641293421049e-6
0.2763671874999927,-1.5325577510938437e-6
0.2763671874999927,-1.5325577510938437e-6
0.2765625,-1.448210600829558e-6
0.2765625,-1.448210600829558e-6
0.27675781249999265,-1.4072286255162325e-6
0.27675781249999265,-1.4072286255162325e-6
0.276953125,-1.5457384939798757e-6
0.276953125,-1.5457384939798757e-6
0.277,-1.5535099364138993e-6
0.27714843749999263,-1.4654716373185828e-6
0.27714843749999263,-1.4654716373185828e-6
0.27734375,-1.3827985967385104e-6
0.27734375,-1.3827985967385104e-6
0.2775390624999926,-1.5252686219047185e-6
0.2775390624999926,-1.5252686219047185e-6
0.277734375,-1.4794506232318483e-6
0.277734375,-1.4794506232318483e-6
0.2779296874999926,-1.3804820065410617e-6
0.2779296874999926,-1.3804820065410617e-6
0.278,-1.4165480085592819e-6
0.278125,-1.5079889366664823e-6
0.278125,-1.5079889366664823e-6
0.27832031249999256,-1.4804899596265741e-6
0.27832031249999256,-1.4804899596265741e-6
0.278515625,-1.3950872309043127e-6
0.278515625,-1.3950872309043127e-6
0.27871093749999254,-1.4866703190730135e-6
0.27871093749999254,-1.4866703190730135e-6
0.27890625,-1.4744326586324519e-6
0.27890625,-1.4744326586324519e-6
0.279,-1.429698007149316e-6
0.2791015624999925,-1.4123498927043343e-6
0.2791015624999925,-1.4123498927043343e-6
0.279296875,-1.4738282677062564e-6
0.279296875,-1.4738282677062564e-6
0.2794921874999925,-1.4450104670604702e-6
0.2794921874999925,-1.4450104670604702e-6
0.2796875,-1.4128376203959014e-6
0.2796875,-1.4128376203959014e-6
0.2798828124999925,-1.5086919745166405e-6
0.2798828124999925,-1.5086919745166405e-6
0.28,-1.4728529469376639e-6
0.280078125,-1.4097081269537348e-6
0.280078125,-1.4097081269537348e-6
0.28027343749999245,-1.383221918893618e-6
0.28027343749999245,-1.383221918893618e-6
0.28046875,-1.5577325006566056e-6
0.28046875,-1.5577325006566056e-6
0.28066406249999243,-1.3997465105886064e-6
0.28066406249999243,-1.3997465105886064e-6
0.280859375,-1.333028755545751e-6
0.280859375,-1.333028755545751e-6
0.281,-1.5232658521213693e-6
0.2810546874999924,-1.57483560997429e-6
0.2810546874999924,-1.57483560997429e-6
0.28125,-1.4299775765724831e-6
0.28125,-1.4299775765724831e-6
0.2814453124999924,-1.29999251297086e-6
0.2814453124999924,-1.29999251297086e-6
0.281640625,-1.5366866679689117e-6
0.281640625,-1.5366866679689117e-6
0.28183593749999236,-1.4533868543664674e-6
0.28183593749999236,-1.4533868543664674e-6
0.282,-1.3123659576841362e-6
0.28203125,-1.3184557864920343e-6
0.28203125,-1.3184557864920343e-6
0.28222656249999234,-1.4967904573559565e-6
0.28222656249999234,-1.4967904573559565e-6
0.282421875,-1.4321127942418244e-6
0.282421875,-1.4321127942418244e-6
0.2826171874999923,-1.3486184418654013e-6
0.2826171874999923,-1.3486184418654013e-6
0.2828125,-1.4918505709116126e-6
0.2828125,-1.4918505709116126e-6
0.283,-1.3983952751872586e-6
0.2830078124999923,-1.3912724937670262e-6
0.2830078124999923,-1.3912724937670262e-6
0.283203125,-1.3659037184643452e-6
0.283203125,-1.3659037184643452e-6
0.2833984374999923,-1.5156005348515578e-6
0.2833984374999923,-1.5156005348515578e-6
0.28359375,-1.3509550056411967e-6
0.28359375,-1.3509550056411967e-6
0.28378906249999225,-1.354227126881824e-6
0.28378906249999225,-1.354227126881824e-6
0.283984375,-1.5299838528881615e-6
0.283984375,-1.5299838528881615e-6
0.284,-1.5281131841571316e-6
0.28417968749999223,-1.3454779845267772e-6
0.28417968749999223,-1.3454779845267772e-6
0.284375,-1.3319769822106586e-6
0.284375,-1.3319769822106586e-6
0.2845703124999922,-1.5252235011642412e-6
0.2845703124999922,-1.5252235011642412e-6
0.284765625,-1.3573300549629685e-6
0.284765625,-1.3573300549629685e-6
0.2849609374999922,-1.3139471214951293e-6
0.2849609374999922,-1.3139471214951293e-6
0.285,-1.3569064797880337e-6
0.28515625,-1.5054443562312336e-6
0.28515625,-1.5054443562312336e-6
0.28535156249999216,-1.3678328231736536e-6
0.28535156249999216,-1.3678328231736536e-6
0.285546875,-1.3203337467238008e-6
0.285546875,-1.3203337467238008e-6
0.28574218749999214,-1.4734133053084797e-6
0.28574218749999214,-1.4734133053084797e-6
0.2859375,-1.366346869702273e-6
0.2859375,-1.366346869702273e-6
0.286,-1.321890580274765e-6
0.2861328124999921,-1.3360752315061397e-6
0.2861328124999921,-1.3360752315061397e-6
0.286328125,-1.4554544425227078e-6
0.286328125,-1.4554544425227078e-6
0.2865234374999921,-1.3366475812848222e-6
0.2865234374999921,-1.3366475812848222e-6
0.28671875,-1.3481926944280964e-6
0.28671875,-1.3481926944280964e-6
0.2869140624999921,-1.4730739739121645e-6
0.2869140624999921,-1.4730739739121645e-6
0.287,-1.4214270154799813e-6
0.287109375,-1.3039264841196996e-6
0.287109375,-1.3039264841196996e-6
0.28730468749999205,-1.3255669317202567e-6
0.28730468749999205,-1.3255669317202567e-6
0.2875,-1.4954756678009495e-6
0.2875,-1.4954756678009495e-6
0.28769531249999203,-1.3022927162764653e-6
0.28769531249999203,-1.3022927162764653e-6
0.287890625,-1.299792357689622e-6
0.287890625,-1.299792357689622e-6
0.288,-1.4298938889045765e-6
0.288085937499992,-1.4841870825677006e-6
0.288085937499992,-1.4841870825677006e-6
0.28828125,-1.3242902672794266e-6
0.28828125,-1.3242902672794266e-6
0.288476562499992,-1.286517351262173e-6
0.288476562499992,-1.286517351262173e-6
0.288671875,-1.4473444623352982e-6
0.288671875,-1.4473444623352982e-6
0.28886718749999196,-1.3368380253342416e-6
0.28886718749999196,-1.3368380253342416e-6
0.289,-1.2751480114592262e-6
0.2890625,-1.2992605230022214e-6
0.2890625,-1.2992605230022214e-6
0.28925781249999194,-1.4178413912935284e-6
0.28925781249999194,-1.4178413912935284e-6
0.289453125,-1.3152118407133706e-6
0.289453125,-1.3152118407133706e-6
0.2896484374999919,-1.3252271182651043e-6
0.2896484374999919,-1.3252271182651043e-6
0.28984375,-1.426299042095458e-6
0.28984375,-1.426299042095458e-6
0.29,-1.3027749269367561e-6
0.2900390624999919,-1.2693400763819085e-6
0.2900390624999919,-1.2693400763819085e-6
0.290234375,-1.3199977647593286e-6
0.290234375,-1.3199977647593286e-6
0.2904296874999919,-1.449858433200113e-6
0.2904296874999919,-1.449858433200113e-6
0.290625,-1.2577838490734905e-6
0.290625,-1.2577838490734905e-6
0.29082031249999185,-1.2924906631073263e-6
0.29082031249999185,-1.2924906631073263e-6
0.291,-1.4470031923785598e-6
0.291015625,-1.4466784691857804e-6
0.291015625,-1.4466784691857804e-6
0.29121093749999183,-1.2758447102689807e-6
0.29121093749999183,-1.2758447102689807e-6
0.29140625,-1.2730124624438233e-6
0.29140625,-1.2730124624438233e-6
0.2916015624999918,-1.4160401769491848e-6
0.2916015624999918,-1.4160401769491848e-6
0.291796875,-1.2969001188523066e-6
0.291796875,-1.2969001188523066e-6
0.2919921874999918,-1.2822088160113765e-6
0.2919921874999918,-1.2822088160113765e-6
0.292,-1.2862772763022612e-6
0.2921875,-1.3614044664378433e-6
0.2921875,-1.3614044664378433e-6
0.29238281249999176,-1.310075654736842e-6
0.29238281249999176,-1.310075654736842e-6
0.292578125,-1.3181597758316066e-6
0.292578125,-1.3181597758316066e-6
0.29277343749999174,-1.3324617302856723e-6
0.29277343749999174,-1.3324617302856723e-6
0.29296875,-1.2825272300287516e-6
0.29296875,-1.2825272300287516e-6
0.293,-1.2832520510652756e-6
0.2931640624999917,-1.3227457560383016e-6
0.2931640624999917,-1.3227457560383016e-6
0.293359375,-1.319245771791433e-6
0.293359375,-1.319245771791433e-6
0.2935546874999917,-1.2851049906448253e-6
0.2935546874999917,-1.2851049906448253e-6
0.29375,-1.349404663009146e-6
0.29375,-1.349404663009146e-6
0.2939453124999917,-1.300047213936839e-6
0.2939453124999917,-1.300047213936839e-6
0.294,-1.2681758652099973e-6
0.294140625,-1.2456446272790522e-6
0.294140625,-1.2456446272790522e-6
0.29433593749999165,-1.3693905562828235e-6
0.29433593749999165,-1.3693905562828235e-6
0.29453125,-1.3178873826125148e-6
0.29453125,-1.3178873826125148e-6
0.29472656249999163,-1.2081061470659016e-6
0.29472656249999163,-1.2081061470659016e-6
0.294921875,-1.3632946369024346e-6
0.294921875,-1.3632946369024346e-6
0.295,-1.3994106864978484e-6
0.2951171874999916,-1.3370419604252781e-6
0.2951171874999916,-1.3370419604252781e-6
0.2953125,-1.194156193151663e-6
0.2953125,-1.194156193151663e-6
0.2955078124999916,-1.3442405777941424e-6
0.2955078124999916,-1.3442405777941424e-6
0.295703125,-1.3376815540255826e-6
0.295703125,-1.3376815540255826e-6
0.29589843749999156,-1.1980294497559996e-6
0.29589843749999156,-1.1980294497559996e-6
0.296,-1.2496109635939945e-6
0.29609375,-1.3265574225762577e-6
0.29609375,-1.3265574225762577e-6
0.29628906249999154,-1.3256255505522674e-6
0.29628906249999154,-1.3256255505522674e-6
0.296484375,-1.2195120122071579e-6
0.296484375,-1.2195120122071579e-6
0.2966796874999915,-1.315598037843202e-6
0.2966796874999915,-1.315598037843202e-6
0.296875,-1.3038497770345714e-6
0.296875,-1.3038497770345714e-6
0.297,-1.2406311162282968e-6
0.2970703124999915,-1.2348400528217063e-6
0.2970703124999915,-1.2348400528217063e-6
0.297265625,-1.3238104842328013e-6
0.297265625,-1.3238104842328013e-6
0.2974609374999915,-1.2781242268444792e-6
0.2974609374999915,-1.2781242268444792e-6
0.29765625,-1.221310208798787e-6
0.29765625,-1.221310208798787e-6
0.29785156249999145,-1.3496344287711182e-6
0.29785156249999145,-1.3496344287711182e-6
0.298,-1.3095501659732278e-6
0.298046875,-1.26668832695076e-6
0.298046875,-1.26668832695076e-6
0.29824218749999143,-1.1933103635231035e-6
0.29824218749999143,-1.1933103635231035e-6
0.2984375,-1.352272934740384e-6
0.2984375,-1.352272934740384e-6
0.2986328124999914,-1.2832797248729655e-6
0.2986328124999914,-1.2832797248729655e-6
0.298828125,-1.1866237478175279e-6
0.298828125,-1.1866237478175279e-6
0.299,-1.3141748156364486e-6
0.2990234374999914,-1.3295303286642302e-6
0.2990234374999914,-1.3295303286642302e-6
0.29921875,-1.2899685642997483e-6
0.29921875,-1.2899685642997483e-6
0.29941406249999136,-1.1990433672059986e-6
