"time","acc_x"
0,-0
5.035165265211776e-5,-0
5.035165265211776e-5,-0
5.2105182012044295e-5,-0
5.2105182012044295e-5,-0
5.639602572906939e-5,-0
5.639602572906939e-5,-0
6.663360520181039e-5,-0
6.663360520181039e-5,-0
0.001,-0
0.002,-0
0.003,-0
0.004,-0
0.005,-0
0.006,-0
0.007,-0
0.008,-0
0.009,-0
0.01,-0
0.011,-0
0.012,-0
0.013,-0
0.014,-0
0.015,-0
0.016,-0
0.017,-0
0.018,-0
0.019,-0
0.02,-0
0.020217177617922917,-0
0.020217177617922917,-0
0.020223941642965735,-0
0.020223941642965735,-0
0.02022646000992373,-0
0.02022646000992373,-0
0.020228072282410546,-0
0.020228072282410546,-0
0.020229476546521616,-0
0.020229476546521616,-0
0.02023105847920841,-0
0.02023105847920841,-0
0.0202334382283697,-0
0.0202334382283697,-0
0.0202391523350727,-0
0.0202391523350727,-0
0.02036900879321734,-0
0.02036900879321734,-0
0.021,-0.0024432286426976646
0.021164626089602054,-0.06514801467069148
0.021164626089602054,-0.06514801467069148
0.022,-0.050589980739453325
0.023,-0.032675340913201095
0.024,-0.09602020863077243
0.025,-0.10097409613981614
0.026,-0.03595363681651426
0.027,-0.013567628071371955
0.028,0.03879877667433646
0.029,-0.023144191254647624
0.03,-0.04765396288692547
0.031,0.011206552147246272
0.032,0.017357371400021297
0.033,0.013955909253873772
0.034,-0.014056493007049586
0.035,0.009148984897186282
0.036,0.025180887161301888
0.037,-0.025403608480334544
0.038,-0.0016852964285462152
0.039,0.007931701587478232
0.04,-0.008332051515320654
0.041,-0.005437197893149545
0.042,0.008398341003008805
0.043,0.009136429821024028
0.044,-0.011380854003857674
0.045,0.00766008229534236
0.046,-0.0012437654180782048
0.047,-0.0078029666386018465
0.048,0.0025826994958522836
0.049,0.00856395543242948
0.05,-0.00753734772161653
0.051,-5.462939328079452e-4
0.052,0.010942124255484464
0.053,-0.011143325026754497
0.054,0.0056710373538643305
0.055,-0.001569929967494943
0.056,-0.0013605027177359258
0.057,0.005229719624714718
0.058,-0.0028757335284465974
0.059,-0.001649944832886191
0.06,0.006661909727222526
0.061,-0.004821450331231297
0.062,-0.0012202039169172396
0.063,0.007667283764903526
0.064,-0.007612760562737686
0.065,0.005539539356070572
0.066,0.006127496557335826
0.067,-0.007817608936273646
0.068,0.007792414760084881
0.069,-0.008438038375756601
0.07,0.012503507737577524
0.071,-0.009686867425854312
0.072,0.010323442049846643
0.073,-0.009683212829371984
0.074,0.008273897325213359
0.075,-0.007998411394926741
0.076,0.0060751423870298304
0.077,-0.0014800002215173969
0.078,0.003113395054024276
0.079,-0.004098746214746568
0.08,0.003009081652757345
0.081,-9.398501651280977e-5
0.082,-0.004311438078333535
0.083,0.007165754756146531
0.084,-0.009441370463369542
0.085,0.01383122153872296
0.086,-0.01625930517461871
0.087,0.01713725322904261
0.088,-0.015882761720481336
0.089,0.012642122699148162
0.09,-0.010411809791767562
0.091,0.008257382280164927
0.092,-0.008351367477999777
0.093,0.005935028115756358
0.094,-0.0020238337956810792
0.095,0.002404691331519021
0.096,-0.009311455676534575
0.097,0.012140475566394748
0.098,-0.012091087844531223
0.099,0.013176626326818708
0.1,-0.01443213632687984
0.101,0.016237863982541983
0.102,-0.007965579799053296
0.103,0.008037384811222514
0.104,-0.008091159450047403
0.105,0.00737883609206158
0.106,-0.004934183532028014
0.107,2.312365740342881e-4
0.108,0.005001256326633313
0.109,-0.009914074197401118
0.11,0.010756138461270492
0.111,-0.010739098612342374
0.112,0.01026025433055408
0.113,-0.00828861521146912
0.114,0.006647932171823023
0.115,-0.010902142813150023
0.116,0.010937715482011334
0.117,-0.0037590503313525703
0.118,-0.0077053131938860375
0.119,0.010975418882873927
0.12,-0.009314305451524701
0.121,0.010535515286618974
0.122,-0.017055378728755483
0.123,0.008367851952499922
0.124,9.46517003378361e-4
0.125,9.817544590557392e-4
0.126,-0.0040578832926368436
0.127,0.008020608745004931
0.128,-0.010555282443522551
0.129,0.004090251144636181
0.13,-0.0023097211511311777
0.131,-0.005904788961341806
0.132,0.0160094503204391
0.133,-0.013658747358841428
0.134,9.784486221070532e-4
0.135,3.334890719721706e-4
0.136,-0.006370713295938413
0.137,0.007139732918092834
0.138,-0.008743195111925062
0.139,0.013784837567685782
0.14,-0.01292732728015572
0.141,0.016096846592792313
0.142,-0.015538209247248191
0.143,0.011969113988042235
0.144,-5.40607278641192e-4
0.145,-0.013318602316818251
0.146,0.01436018314006221
0.147,-0.009326349525658806
0.148,0.007380631916811264
0.149,-0.01204598888749453
0.15,0.013882066574753493
0.151,-0.010914427922316339
0.152,0.010092704355029236
0.153,-0.00702133507346786
0.154,0.0035851776779693423
0.155,-0.0022786276919271042
0.156,-0.001162174926915449
0.157,0.00858087989727696
0.158,-0.015320467968888862
0.159,0.008385679339973195
0.16,0.0012208941570404086
0.161,-0.005062343689593296
0.162,0.007975058495787113
0.163,-0.008814983763806628
0.164,0.005859684037208046
0.165,-0.0029831939487778847
0.166,-1.3953528641436064e-4
0.167,2.4381770199294328e-4
0.168,1.4235711913113125e-5
0.169,-7.173817895619328e-4
0.17,-8.829283370042074e-4
0.171,-3.4333432390892815e-4
0.172,4.95762975152414e-4
0.173,3.85577976949103e-4
0.174,1.9242265124624902e-4
0.175,7.765032272288863e-5
0.176,1.6466699284511943e-5
0.177,-1.5167485442446615e-5
0.178,-1.3886864130507881e-5
0.179,-1.8598350789988949e-6
0.18,-2.25375351632362e-5
0.181,5.0409787113514515e-5
0.182,-5.7503476225850836e-5
0.183,-4.3809079933287975e-5
0.184,-5.113219350122433e-5
0.185,-6.255560390283632e-5
0.186,2.9788522745877177e-5
0.187,1.3233969440318294e-4
0.188,-5.345427161304594e-4
0.189,2.4022494815706397e-4
0.19,-7.36512115487864e-5
0.191,-2.2360209733313097e-4
0.192,2.971922114895498e-4
0.193,-3.811590229330086e-5
0.194,-2.6945740888772995e-4
0.195,2.5626069210982205e-4
0.196,2.569078725089824e-5
0.197,-2.7192331463532504e-5
0.198,-3.1886596726371508e-6
0.199,-4.927222075234994e-6
0.2,4.453544133475873e-8
0.201,-2.917426701276593e-6
0.202,-4.79347448190115e-6
0.203,-6.917689858165765e-7
0.204,-4.402229967448434e-6
0.205,-4.026023439684945e-6
0.206,1.1139010838157049e-6
0.207,4.6877546500123657e-7
0.208,-1.1413666628379282e-5
0.209,-1.5799622133438884e-5
0.21,5.475442310037826e-5
0.211,3.8150265237679726e-5
0.212,-1.1267894309263671e-4
0.213,6.70639705703191e-4
0.214,-0.0012467606698485234
0.215,-4.294249570819808e-4
0.216,0.0016742680286436218
0.217,-6.343355451729482e-4
0.218,-6.575670112668464e-5
0.219,8.827364178848329e-5
0.22,-1.1360989000847033e-4
0.221,1.780621849101771e-4
0.222,-1.3591346308094998e-4
0.223,-1.529203375877919e-4
0.224,4.337794282255336e-4
0.225,-1.1902038794459058e-4
0.226,-2.1302987307358912e-4
0.227,4.938020177453484e-4
0.228,4.258766133274916e-5
0.229,-4.66196985324574e-4
0.23,5.867948417439539e-4
0.231,-0.001148403378462226
0.232,0.0017020274158031645
0.233,-5.788983560542915e-4
0.234,5.488014727184076e-5
0.235,-1.5613632466471294e-4
0.236,-0.0066112276696305705
0.237,-0.0035829377488527103
0.238,-0.0020243184041747186
0.239,5.882275828906214e-4
0.24,4.13995041184112e-4
0.241,-2.8730611873634126e-4
0.242,5.808900124315564e-4
0.243,-6.726807934037127e-4
0.244,7.028818732440212e-4
0.245,-4.8300867489858845e-4
0.246,-9.166938949758952e-4
0.247,0.001816309939302485
0.248,-8.720276401605331e-4
0.249,3.9494379690435677e-4
0.25,2.852980514722603e-5
0.251,-6.244537433931496e-4
0.252,8.17193639236713e-4
0.253,-6.058428730651988e-4
0.254,5.938226259183388e-5
0.255,3.904334442824675e-4
0.256,-4.5157753543612067e-4
0.257,7.828085733160295e-4
0.258,-0.0010701857539616721
0.259,6.807071564204348e-4
0.26,-1.8305247691807747e-4
0.261,-2.5213948068031344e-4
0.262,4.514516932631607e-4
0.263,-5.173855120494397e-4
0.264,3.6585725865040386e-4
0.265,-1.6077682914450442e-4
0.266,-1.506256951855911e-4
0.267,4.408683282733361e-4
0.268,-5.773573367967022e-4
0.269,6.248882754268381e-4
0.27,-5.108562126210359e-4
0.271,6.422436207996207e-4
0.272,-4.558064648874649e-4
0.273,-4.7855241602778875e-4
0.274,9.874229798033651e-4
0.275,0.0011846253870967383
0.276,0.003507443213398076
0.277,-0.004006007376672283
0.278,-0.013645773790921634
0.279,-0.007879052405420084
0.28,-0.0029504634947711827
0.281,-1.144483908871452e-5
0.282,-4.289323925485977e-4
0.283,0.0014163977981456188
0.284,0.001103704249325932
0.285,5.082893256108667e-4
0.286,9.176983088393653e-5
0.287,-4.511239351325247e-4
0.288,1.9672359383349214e-4
0.289,-4.6103501866123775e-5
0.29,-9.357559375250402e-5
0.291,1.3722432599649892e-4
0.292,-9.499280226205054e-5
0.293,-3.323172960328913e-5
0.294,1.2193650962949443e-4
0.295,-1.5717553396366046e-4
0.296,7.020758472014998e-5
0.297,3.1093713739382967e-5
0.298,-7.715691485260523e-5
0.299,7.319878412281877e-5
0.3,-4.799865331872599e-5
0.301,-2.110004203670357e-5
0.302,4.6321952543670886e-5
0.303,-2.2474078163581268e-5
0.304,-1.2514318171452654e-5
0.305,1.9247369504038492e-5
0.306,-7.556371200478917e-6
0.307,-1.1089287592636055e-5
0.308,1.639494948818543e-5
0.309,-9.962900731574909e-6
0.31,-2.163915650721382e-5
0.311,2.441741396635999e-5
0.312,-1.2445222120072152e-6
0.313,-2.073176322497927e-5
0.314,1.1040824286379092e-5
0.315,4.8808287159141095e-6
0.316,-9.547133545673159e-6
0.317,3.0056331851713303e-6
0.318,4.149619806104177e-6
0.319,-8.584566945080141e-6
0.32,-1.048097467526432e-5
0.321,-5.00920335938515e-6
0.322,3.3020801492034124e-6
0.323,3.3602103185481624e-6
0.324,-3.812899112054513e-6
0.325,-4.789140612082576e-6
0.326,-3.350916173427976e-7
0.327,1.4405501647662966e-6
0.328,-4.1669256850562775e-7
0.329,-3.495607712344917e-6
0.33,-2.4785921447501025e-6
0.331,1.5207341706457989e-6
0.332,2.6079519596655665e-6
0.333,-1.9829858949327317e-6
0.334,-6.041677892809627e-6
0.335,-3.6040401211745454e-6
0.336,4.553725671541109e-6
0.337,4.928498769429801e-6
0.338,-7.592355047103538e-6
0.339,-1.0431491090368006e-5
0.34,1.57163119185455e-8
0.341,1.0033852986202074e-5
0.342,5.14064584850038e-6
0.343,-9.018943360195042e-6
0.344,-1.1210192491617477e-5
0.345,2.969387306095417e-6
0.346,5.03194253448358e-6
0.347,-2.4114838317879084e-6
0.348,-4.153300685483252e-6
0.349,-1.5586404654155395e-6
0.35,3.363933358591087e-6
0.351,4.254333479170036e-6
0.352,-2.368992060519659e-6
0.353,-8.231955302695493e-6
0.354,-3.3614195085740484e-6
0.355,6.211524660126866e-6
0.356,6.172020644790166e-6
0.357,-1.3139741712131503e-5
0.358,-1.7059444395894907e-5
0.359,5.811152654577878e-6
0.36,1.4903040208680274e-5
0.361,-1.0412172632812133e-5
0.362,-1.258699350481507e-5
0.363,2.1133041855914136e-6
0.364,3.999915145047606e-6
0.365,-1.2876530841587908e-7
0.366,-2.5667985357191725e-6
0.367,-3.0965017016049146e-6
0.368,-1.2582377718617366e-6
0.369,6.012082253981088e-6
0.37,6.18257050982729e-6
0.371,-7.817989957803473e-6
0.372,-1.3266009508017262e-5
0.373,2.6495611817334286e-6
0.374,1.9081960762390437e-5
0.375,-7.272463122931505e-6
0.376,-1.24592607148033e-5
0.377,5.414343244081188e-6
0.378,1.2599953623460003e-5
0.379,4.027251688354383e-6
0.38,-8.857160490205462e-6
0.381,-5.2739935594292575e-6
0.382,9.610162259920951e-6
0.383,1.1216104665978666e-5
0.384,3.261719744296343e-8
0.385,-1.3286291541569906e-5
0.386,-2.5683530371911623e-6
0.387,8.191003576851763e-6
0.388,7.072181228418017e-7
0.389,-2.1361759142690673e-6
0.39,3.805917054289232e-7
0.391,-1.1920197373060937e-6
0.392,-1.1613721559999846e-6
0.393,-1.9356320887786715e-6
0.394,-6.198779625710138e-6
0.395,-6.297233640151223e-6
0.396,-3.0124333461056807e-6
0.397,9.12193292013086e-7
0.398,3.537624078453483e-6
0.399,2.286143962582088e-6
0.4,7.355589799473705e-6
0.401,1.327433148123891e-5
0.402,-3.849264467115088e-6
0.403,-2.433963163650521e-5
0.404,-7.95188284746784e-6
0.405,2.0575537180156367e-6
0.406,-9.013911785316076e-7
0.407,9.345125204229809e-7
0.408,1.6587976062742982e-6
0.409,2.243685436220666e-6
0.41,2.7248548268854478e-6
0.411,3.2096835334005647e-6
0.412,2.74976186731557e-6
0.413,-1.3528501190407383e-6
0.414,-1.3975762913509548e-5
0.415,-2.6882191359600682e-6
0.416,3.231847876211669e-5
0.417,-5.547661244775792e-6
0.418,-6.450438501748312e-5
0.419,-3.1296529009294805e-5
0.42,-8.932474680589664e-6
0.421,-4.352442842803228e-7
0.422,1.9353269194999356e-6
0.423,9.817646255405599e-7
0.424,-3.1136697942191205e-7
0.425,-1.059023258809244e-6
0.426,-1.1078126492813922e-6
0.427,-1.067069773819096e-6
0.428,-8.383634433339893e-7
0.429,-7.143922309826856e-7
0.43,-6.240839053872627e-7
0.431,-5.976254695005956e-7
0.432,-6.494241170940107e-7
0.433,-7.189829810405612e-7
0.434,-7.480348619970378e-7
0.435,-7.690949684890924e-7
0.436,-7.582938179040433e-7
0.437,-7.170547196566623e-7
0.438,-6.983978263486179e-7
0.439,-7.015698930690206e-7
0.44,-7.075633282060956e-7
0.441,-7.148509248433577e-7
0.442,-7.202675624262689e-7
0.443,-7.155997562846572e-7
0.444,-7.040750798492645e-7
0.445,-6.987269802749552e-7
0.446,-6.968910345461765e-7
0.447,-6.958621820429833e-7
0.448,-6.953529034792183e-7
0.449,-6.931915513264109e-7
0.45,-6.86247630665715e-7
0.451,-6.82046555400273e-7
0.452,-6.812778480802528e-7
0.453,-6.817918201118545e-7
0.454,-6.839332841179768e-7
0.455,-6.866454982934478e-7
0.456,-6.858284924970981e-7
0.457,-6.824485636047761e-7
0.458,-6.752450210090188e-7
0.459,-6.627687267335425e-7
0.46,-6.55182126552134e-7
0.461,-6.507698034896592e-7
0.462,-6.500285837929276e-7
0.463,-6.548566803266098e-7
0.464,-6.564175667467254e-7
0.465,-6.565795730995028e-7
0.466,-6.552804599491147e-7
0.467,-6.513048728673532e-7
0.468,-6.482450006228824e-7
0.469,-6.447347902782674e-7
0.47,-6.402794466286998e-7
0.471,-6.347930215921949e-7
0.472,-6.30399137502291e-7
0.473,-6.271882507791204e-7
0.474,-6.257894466510372e-7
0.475,-6.271268028767985e-7
0.476,-6.267209734511781e-7
0.477,-6.255832304402631e-7
0.478,-6.234657799475407e-7
0.479,-6.196346944431497e-7
0.48,-6.166451100297898e-7
0.481,-6.135415822616785e-7
0.482,-6.101608173159079e-7
0.483,-6.065625188234058e-7
0.484,-6.032991737292548e-7
0.485,-6.005866019509476e-7
0.486,-5.988243758636713e-7
0.487,-5.985405012731704e-7
0.488,-5.975178309358675e-7
0.489,-5.960388453907228e-7
0.49,-5.935520935307359e-7
0.491,-5.891351252396149e-7
0.492,-5.857208515980261e-7
0.493,-5.823741885402356e-7
0.494,-5.792674120375096e-7
0.495,-5.768791688787189e-7
0.496,-5.751876254178612e-7
0.497,-5.749753543282665e-7
0.498,-5.769939404043356e-7
0.499,-5.821334574385162e-7
0.5,-5.850984412525406e-7
0.501,-5.864470361549579e-7
0.502,-5.845229062995116e-7
0.503,-5.769351161255543e-7
0.504,-5.696878923044935e-7
0.505,-5.599166940095657e-7
0.506,-5.475775929353333e-7
0.507,-5.331092725047171e-7
0.508,-5.223957186828443e-7
0.509,-5.169815971983738e-7
0.51,-5.209179713139278e-7
0.511,-5.394022584148672e-7
0.512,-5.552540973674525e-7
0.513,-5.745649874766556e-7
0.514,-5.948017495205349e-7
0.515,-6.118332402937909e-7
0.516,-6.212625042190112e-7
0.517,-6.158401621991771e-7
0.518,-5.870311448052945e-7
0.519,-5.24462537954129e-7
0.52,-4.877708947859105e-7
0.521,-4.5541906390500486e-7
0.522,-4.3498673385489184e-7
0.523,-4.355656845200784e-7
0.524,-4.676839779893527e-7
0.525,-5.432972439711747e-7
0.526,-6.757789959843663e-7
0.527,-7.434813619200398e-7
0.528,-7.781721513833162e-7
0.529,-7.957615258957773e-7
0.53,-7.874078334912937e-7
0.531,-7.430953861131684e-7
0.532,-6.516332656802959e-7
0.533,-5.47684732898901e-7
0.534,-5.089841751404478e-7
0.535,-4.682543971457065e-7
0.536,-4.261290311724508e-7
0.537,-3.8324260009936495e-7
0.538,-3.402307616751088e-7
0.539,-2.977298504402981e-7
0.54,-2.803890516434038e-7
0.541,-2.791754222242204e-7
0.542,-2.936012577503533e-7
0.543,-3.258083428603342e-7
0.544,-3.779242230272928e-7
0.545,-4.520613251512984e-7
0.546,-5.102088115327419e-7
0.547,-5.056958617410956e-7
0.548,-4.793832952820765e-7
0.549,-4.269668741896382e-7
0.55,-3.4412715010923023e-7
0.551,-2.2653032183406197e-7
0.552,-6.982669720212442e-8
0.553,-8.950495267168179e-8
0.554,-1.721523605890951e-7
0.555,-3.169072331221656e-7
0.556,-5.330441318340817e-7
0.557,-8.298396440009626e-7
0.558,-1.2165733691560376e-6
0.559,-1.5237093687892056e-6
0.56,-1.617734195602516e-6
0.561,-1.6377304701276074e-6
0.562,-1.5686117942337319e-6
0.563,-1.3952477158074572e-6
0.564,-1.102463508373397e-6
0.565,-9.622254771857186e-7
0.566,-9.976766384145463e-7
0.567,-1.1090847148453875e-6
0.568,-1.3128379502402865e-6
0.569,-1.6253627294071649e-6
0.57,-2.063123109019571e-6
0.571,-2.0187736287091695e-6
0.572,-1.6797318768135838e-6
0.573,-1.1019230345965525e-6
0.574,-2.4724248315344255e-7
0.575,9.225239127053086e-7
0.576,2.416934491655809e-6
0.577,2.3155200483682137e-6
0.578,1.6894056570349036e-6
0.579,4.3612762201661326e-7
0.58,-1.5469983171145785e-6
0.581,-4.362872826346731e-6
0.582,-7.320958832934821e-6
0.583,-6.830324881024197e-6
0.584,-5.10588748869889e-6
0.585,-1.9097709530457863e-6
0.586,2.996354244610977e-6
0.587,9.851267953941978e-6
0.588,1.5362513243633025e-5
0.589,1.500879013027756e-5
0.59,1.3534655918800986e-5
0.591,1.0937753523787563e-5
0.592,7.2157375045067695e-6
0.593,2.366276441456705e-6
0.594,-7.832300330523623e-7
0.595,-1.5771968263633696e-6
0.596,-1.907984410909336e-6
0.597,-1.7760066446381728e-6
0.598,-1.18167608298414e-6
0.599,-7.316705300519644e-7
0.6,-6.061828117243095e-7
0.601,-4.118947357634184e-7
0.602,-1.49590260845045e-7
0.603,1.7994939993659642e-7
0.604,3.7596910962278685e-7
0.605,3.784071157530988e-7
0.606,3.1626622665203996e-7
0.607,1.8861829087502002e-7
0.608,-5.460738083939987e-9
0.609,-1.58365659919113e-7
0.61,-2.389101212418865e-7
0.611,-3.1843590586611015e-7
0.612,-3.9778657379141436e-7
0.613,-4.778032441921098e-7
0.614,-5.332078543140994e-7
0.615,-5.489368953837115e-7
0.616,-5.363258043233898e-7
0.617,-4.913483085955406e-7
0.618,-4.099631722986885e-7
0.619,-3.300313814458278e-7
0.62,-2.7294467097593866e-7
0.621,-2.1772585601098626e-7
0.622,-1.6802308144825417e-7
0.623,-1.274819493302104e-7
0.624,-9.974541692603367e-8
0.625,-8.845362764464682e-8
0.626,-9.724428939872354e-8
0.627,-1.297524568899533e-7
0.628,-1.8961048009469295e-7
0.629,-2.269912087182746e-7
0.63,-2.32022441482016e-7
0.631,-2.4062786896372756e-7
0.632,-2.529093210412725e-7
0.633,-2.6896322125047334e-7
0.634,-2.8888016689876395e-7
0.635,-3.1274624423538455e-7
0.636,-3.406418644935627e-7
0.637,-3.7264251906421464e-7
0.638,-3.945969223595469e-7
0.639,-4.03131071857743e-7
0.64,-4.070213545093182e-7
0.641,-4.0549032320758016e-7
0.642,-3.977537755828209e-7
0.643,-3.8302111493582203e-7
0.644,-3.604946846591517e-7
0.645,-3.2937079208483766e-7
0.646,-2.88839102302596e-7
0.647,-2.649313798341879e-7
0.648,-2.6351066151342195e-7
0.649,-2.67425314781633e-7
0.65,-2.774827569940186e-7
0.651,-2.944857784292765e-7
0.652,-3.192330142454125e-7
0.653,-3.525184746333565e-7
0.654,-3.9513195670970447e-7
0.655,-4.4785910835454246e-7
0.656,-4.791898594591615e-7
0.657,-4.81886368031148e-7
0.658,-4.763427517984198e-7
0.659,-4.613555814048098e-7
0.66,-4.3571525265573285e-7
0.661,-3.9820649089250537e-7
0.662,-3.476076356756508e-7
0.663,-2.826910486808387e-7
0.664,-2.0222332386410358e-7
0.665,-1.5288672194913033e-7
0.666,-1.4529469261059802e-7
0.667,-1.490958595473657e-7
0.668,-1.6595589769075048e-7
0.669,-1.9753709812331266e-7
0.67,-2.4549884125590893e-7
0.671,-3.114970325013289e-7
0.672,-3.971840392136272e-7
0.673,-5.042098391028205e-7
0.674,-5.904468575179678e-7
0.675,-6.415846173224438e-7
0.676,-6.818193705182551e-7
0.677,-7.067849120412362e-7
0.678,-7.117246205723404e-7
0.679,-6.914886028219769e-7
0.68,-6.405353439875583e-7
0.681,-5.529299994533332e-7
0.682,-4.223445584372598e-7
0.683,-3.28011601435918e-7
0.684,-2.9407917079282697e-7
0.685,-2.6877808123604296e-7
0.686,-2.5598315289698803e-7
0.687,-2.5993640684340846e-7
0.688,-2.852475887715755e-7
0.689,-3.3689530642977417e-7
0.69,-4.2022583879308684e-7
0.691,-5.409546400825249e-7
0.692,-6.218795611800942e-7
0.693,-6.392295195389863e-7
0.694,-6.426941736581426e-7
0.695,-6.28070533248426e-7
0.696,-5.907885773925869e-7
0.697,-5.259129165491316e-7
0.698,-4.2814206546726297e-7
0.699,-2.9180812921580923e-7
0.7,-1.1087665507947264e-7
0.701,2.165118473396177e-8
0.702,7.65502771171711e-8
0.703,1.1208761752090624e-7
0.704,1.2217910638767648e-7
0.705,1.002316863951691e-7
0.706,3.914332724619385e-8
0.707,-6.869733215619789e-8
0.708,-2.3141082028388382e-7
0.709,-4.5762716394115444e-7
0.71,-6.216077045317903e-7
0.711,-6.842629084458096e-7
0.712,-7.250898579336251e-7
0.713,-7.363386703707064e-7
0.714,-7.095839407167404e-7
0.715,-6.357242225973891e-7
0.716,-5.049814579827228e-7
0.717,-3.0690175090164473e-7
0.718,-3.035454521072012e-8
0.719,1.604878379080077e-7
0.72,2.263369005550686e-7
0.721,2.79837266359273e-7
0.722,3.183631457348568e-7
0.723,3.392912881761134e-7
0.724,3.4000140924916877e-7
0.725,3.17877017819157e-7
0.726,2.7030405969075133e-7
0.727,1.9467123801852892e-7
0.728,8.837079290557881e-8
0.729,-4.851893331547785e-9
0.73,-6.859553447480238e-8
0.731,-1.411799225303767e-7
0.732,-2.225580767456492e-7
0.733,-3.1268057720801323e-7
0.734,-4.114949327949091e-7
0.735,-5.189455926091213e-7
0.736,-6.349748210565664e-7
0.737,-7.595216592326537e-7
0.738,-8.925221379740833e-7
0.739,-1.001786879117894e-6
0.74,-1.0662784907244927e-6
0.741,-1.1166308554466653e-6
0.742,-1.1508252655278994e-6
0.743,-1.166840004618308e-6
0.744,-1.1626510644235921e-6
0.745,-1.1362315797125433e-6
0.746,-1.085552560953218e-6
0.747,-1.0085817828686672e-6
0.748,-9.032849073165039e-7
0.749,-7.986123196079831e-7
0.75,-7.224692134544242e-7
0.751,-6.362330723375109e-7
0.752,-5.399839182462784e-7
0.753,-4.337994919945132e-7
0.754,-3.177552467814593e-7
0.755,-1.9192357081365685e-7
0.756,-5.637482625164836e-8
0.757,8.88231246332083e-8
0.758,2.436054221677253e-7
0.759,3.817015199469864e-7
0.76,4.6717605062251977e-7
0.761,5.384659940155245e-7
0.762,5.934482811831288e-7
0.763,6.300028024819326e-7
0.764,6.460119938989095e-7
0.765,6.393606303278787e-7
0.766,6.079358274568847e-7
0.767,5.496276581640203e-7
0.768,4.6232765449349955e-7
0.769,3.652285615052264e-7
0.77,3.002148178943287e-7
0.771,2.292339436049673e-7
0.772,1.5455854252000023e-7
0.773,7.872239837780626e-8
0.774,4.520359642157246e-9
0.775,-6.499206772758725e-8
0.776,-1.264991972282914e-7
0.777,-1.7642396099581958e-7
0.778,-2.109290994090074e-7
0.779,-2.386612903970686e-7
0.78,-2.914326689973379e-7
0.781,-3.3677755806316156e-7
0.782,-3.7296894817018256e-7
0.783,-3.9820640773680083e-7
0.784,-4.106158350003497e-7
0.785,-4.082494395873937e-7
0.786,-3.89085811014489e-7
0.787,-3.5103001716496607e-7
0.788,-2.9191412043161336e-7
0.789,-2.2308645519775183e-7
0.79,-1.9650297267137518e-7
0.791,-1.70000137744708e-7
0.792,-1.4533966918861552e-7
0.793,-1.2446152486411677e-7
0.794,-1.0948383977193998e-7
0.795,-1.0270303119064295e-7
0.796,-1.0659361393550171e-7
0.797,-1.2380873137818327e-7
0.798,-1.5717879198184903e-7
0.799,-2.0055323934897729e-7
0.8,-2.0300758007962827e-7
0.801,-2.0598469741006653e-7
0.802,-2.0922449195381887e-7
0.803,-2.1241716907649533e-7
0.804,-2.1520455806278704e-7
0.805,-2.1717984599600726e-7
0.806,-2.1788711523917925e-7
0.807,-2.1682210993301254e-7
0.808,-2.1343136358265014e-7
0.809,-2.080954365490939e-7
0.81,-2.0968817027178233e-7
0.811,-2.1103176151004988e-7
0.812,-2.119876753026162e-7
0.813,-2.1240536274280686e-7
0.814,-2.121215548767097e-7
0.815,-2.109609250622313e-7
0.816,-2.0873580119928903e-7
0.817,-2.0524590960135924e-7
0.818,-2.0027875557993013e-7
0.819,-1.9389780792078426e-7
0.82,-1.9185385491393703e-7
0.821,-1.8994953432383e-7
0.822,-1.8827890069239572e-7
0.823,-1.869451252689558e-7
0.824,-1.8606017848643575e-7
0.825,-1.8574671312165947e-7
0.826,-1.861346204945491e-7
0.827,-1.873649838612934e-7
0.828,-1.8958650893630136e-7
0.829,-1.9295096653770827e-7
0.83,-1.9303913467716427e-7
0.831,-1.9307679166580272e-7
0.832,-1.9303829135175476e-7
0.833,-1.9289591401960848e-7
0.834,-1.926209963754033e-7
0.835,-1.921834876794648e-7
0.836,-1.9155155261962875e-7
0.837,-1.9069243617497733e-7
0.838,-1.8957160308197274e-7
0.839,-1.881534374970073e-7
0.84,-1.866973429187624e-7
0.841,-1.857264483318133e-7
0.842,-1.8464044104771205e-7
0.843,-1.8342397067883098e-7
0.844,-1.82059661235634e-7
0.845,-1.8052945427449174e-7
0.846,-1.7881374325678934e-7
0.847,-1.7689119757857696e-7
0.848,-1.7473981606119793e-7
0.849,-1.7233598925692206e-7
0.85,-1.696548502794215e-7
0.851,-1.6759677123889816e-7
0.852,-1.6614522979629953e-7
0.853,-1.647877758692573e-7
0.854,-1.635316509984719e-7
0.855,-1.6238244793242984e-7
0.856,-1.6134486047203467e-7
0.857,-1.6042234607382966e-7
0.858,-1.5961700894351338e-7
0.859,-1.5893001592548472e-7
0.86,-1.5836128797186433e-7
0.861,-1.5790892993194916e-7
0.862,-1.5776335959838406e-7
0.863,-1.5780223017181072e-7
0.864,-1.580094165509749e-7
0.865,-1.5838420119873575e-7
0.866,-1.589243155963871e-7
0.867,-1.596265492009863e-7
0.868,-1.6048686080072372e-7
0.869,-1.6149960468947455e-7
0.87,-1.6265850166785611e-7
0.871,-1.6395577762118307e-7
0.872,-1.6526074131384405e-7
0.873,-1.6613562014988759e-7
0.874,-1.6694614679568787e-7
0.875,-1.6766559352010546e-7
0.876,-1.6826695670157932e-7
0.877,-1.6872111352483898e-7
0.878,-1.6899888988231027e-7
0.879,-1.6906928435034274e-7
0.88,-1.6890088749832444e-7
0.881,-1.684605188678745e-7
0.882,-1.6771443223095872e-7
0.883,-1.670030864708849e-7
0.884,-1.6646079337157005e-7
0.885,-1.6579031003605138e-7
0.886,-1.649937366732246e-7
0.887,-1.64073870045911e-7
0.888,-1.6303464811517898e-7
0.889,-1.6188137019756965e-7
0.89,-1.6062065055777452e-7
0.891,-1.5926071494920535e-7
0.892,-1.5781005957560268e-7
0.893,-1.5627937244300227e-7
0.894,-1.549467040229402e-7
0.895,-1.537190508216213e-7
0.896,-1.5257595287199166e-7
0.897,-1.5155028965097017e-7
0.898,-1.5067642167299056e-7
0.899,-1.499914893399179e-7
0.9,-1.4953438409737174e-7
0.901,-1.4934677661226914e-7
0.902,-1.49472336508083e-7
0.903,-1.4995658759175967e-7
0.904,-1.5069424053049119e-7
0.905,-1.505059032957945e-7
0.906,-1.5032131162051598e-7
0.907,-1.501226998268379e-7
0.908,-1.498909634189971e-7
0.909,-1.4960492755733412e-7
0.91,-1.4924202262900366e-7
0.911,-1.4877749787700623e-7
0.912,-1.4818474447508834e-7
0.913,-1.4743565135422187e-7
0.914,-1.4650071145094756e-7
0.915,-1.4565467509886076e-7
0.916,-1.451576746580585e-7
0.917,-1.446581875397257e-7
0.918,-1.4415956561819598e-7
0.919,-1.436642368402019e-7
0.92,-1.4317611796155205e-7
0.921,-1.426992529696136e-7
0.922,-1.4223812627722765e-7
0.923,-1.417973966022501e-7
0.924,-1.4138284620823782e-7
0.925,-1.41000173425887e-7
0.926,-1.4056696273634373e-7
0.927,-1.4010887705584452e-7
0.928,-1.3965587908337795e-7
0.929,-1.3920934138766938e-7
0.93,-1.3877091031844202e-7
0.931,-1.3834251910704864e-7
0.932,-1.3792570829895823e-7
0.933,-1.375230858080556e-7
0.934,-1.3713665092396354e-7
0.935,-1.3676884846880455e-7
0.936,-1.364222653732483e-7
0.937,-1.3607677284976916e-7
0.938,-1.3573027612956423e-7
0.939,-1.3537705034760705e-7
0.94,-1.3501100659674137e-7
0.941,-1.3462532766350677e-7
0.942,-1.3421221467524447e-7
0.943,-1.337630303188675e-7
0.944,-1.332694001821011e-7
0.945,-1.3272134236075317e-7
0.946,-1.322212849208526e-7
0.947,-1.318750864065521e-7
0.948,-1.315345009578195e-7
0.949,-1.3119525421600997e-7
0.95,-1.3085280614610895e-7
0.951,-1.3050153224725136e-7
0.952,-1.3013565047792497e-7
0.953,-1.2974812768629107e-7
0.954,-1.2933214532662163e-7
0.955,-1.288793203269023e-7
0.956,-1.2851928277157754e-7
0.957,-1.2819319294976594e-7
0.958,-1.2786131076136797e-7
0.959,-1.2751926981025008e-7
0.96,-1.2716067321338898e-7
0.961,-1.2677923677539837e-7
0.962,-1.2636793433884463e-7
0.963,-1.259187154545316e-7
0.964,-1.2542419469685484e-7
0.965,-1.2490776990503605e-7
0.966,-1.2456268461136233e-7
0.967,-1.2422139783474506e-7
0.968,-1.2388021741749355e-7
0.969,-1.235355006068417e-7
0.97,-1.2318277708978087e-7
0.971,-1.2281648387180155e-7
0.972,-1.2243199531969395e-7
0.973,-1.22022554172041e-7
0.974,-1.2158160922481898e-7
0.975,-1.211791329502887e-7
0.976,-1.208375245420612e-7
0.977,-1.2049090492016745e-7
0.978,-1.2013504990804336e-7
0.979,-1.1976511993250227e-7
0.98,-1.1937543631379555e-7
0.981,-1.1896048202064691e-7
0.982,-1.1851338532764544e-7
0.983,-1.1802722232889806e-7
0.984,-1.1750767325846567e-7
0.985,-1.1715664671729797e-7
0.986,-1.1681261657958686e-7
0.987,-1.164731019409615e-7
0.988,-1.1613557326928259e-7
0.989,-1.1579625180946351e-7
0.99,-1.1545141243018975e-7
0.991,-1.1509665176490103e-7
0.992,-1.147270491941299e-7
0.993,-1.1433737368005126e-7
0.994,-1.1399089960839603e-7
0.995,-1.1368447583315344e-7
0.996,-1.1337696970148414e-7
0.997,-1.1306481595418916e-7
0.998,-1.1274357558654913e-7
0.999,-1.1240884956187358e-7
1,-1.1205473959829959e-7
1.001,-1.1167654268007254e-7
1.002,-1.1126726751076177e-7
1.003,-1.1084542861361513e-7
1.004,-1.1053879245270792e-7
1.005,-1.1023416579547529e-7
1.006,-1.099286258687826e-7
1.007,-1.0961898511130386e-7
1.008,-1.0930133331754632e-7
1.009,-1.0897186630831612e-7
1.01,-1.0862547195067407e-7
1.011,-1.0825746254994328e-7
1.012,-1.078622130501472e-7
1.013,-1.0753061918666873e-7
1.014,-1.072352893149997e-7
1.015,-1.0693942420481051e-7
1.016,-1.066400916460708e-7
1.017,-1.0633399494253126e-7
1.018,-1.0601736832871467e-7
1.019,-1.0568530761645434e-7
1.02,-1.0533362782005895e-7
1.021,-1.0495685276445954e-7
1.022,-1.0457406329766883e-7
1.023,-1.0424861518476547e-7
1.024,-1.0392329186093008e-7
1.025,-1.0359771251966521e-7
1.026,-1.0327264932108449e-7
1.027,-1.0294789065667942e-7
1.028,-1.0262380656378411e-7
1.029,-1.023001456879058e-7
1.03,-1.0197759259256145e-7
1.031,-1.0165642894133242e-7
1.032,-1.0133624028796362e-7
1.033,-1.0101766667602874e-7
1.034,-1.007011193321361e-7
1.035,-1.003871341609397e-7
1.036,-1.0007660034005994e-7
1.037,-9.976967074720733e-8
1.038,-9.946725976206494e-8
1.039,-9.916991761116378e-8
1.04,-9.887863983149003e-8
1.041,-9.858762761716378e-8
1.042,-9.828806335487883e-8
1.043,-9.798914368808198e-8
1.044,-9.769051789731975e-8
1.045,-9.739246320528139e-8
1.046,-9.709425785597858e-8
1.047,-9.679622559044532e-8
1.048,-9.649763521579757e-8
1.049,-9.619879892674987e-8
1.05,-9.589935012765949e-8
1.051,-9.560233094063619e-8
1.052,-9.530586919659356e-8
1.053,-9.501007480761103e-8
1.054,-9.471520623360874e-8
1.055,-9.442089177191804e-8
1.056,-9.412816925902234e-8
1.057,-9.383640897642209e-8
1.058,-9.354649244119884e-8
1.059,-9.3258835320853e-8
1.06,-9.298256353762469e-8
1.061,-9.27195658029234e-8
1.062,-9.245772003563246e-8
1.063,-9.219507390856307e-8
1.064,-9.192921157641365e-8
1.065,-9.16573519305075e-8
1.066,-9.137655321289628e-8
1.067,-9.108351839426376e-8
1.068,-9.077504803389758e-8
1.069,-9.044692184101422e-8
1.07,-9.0197087687649e-8
1.071,-8.995021860691566e-8
1.072,-8.970415199538451e-8
1.073,-8.945713925179177e-8
1.074,-8.920624017250134e-8
1.075,-8.894934122594123e-8
1.076,-8.868292744601547e-8
1.077,-8.840436960255715e-8
1.078,-8.810968887829063e-8
1.079,-8.783867699868608e-8
1.08,-8.75978294345714e-8
1.081,-8.735604650755846e-8
1.082,-8.711044263698398e-8
1.083,-8.685881203174262e-8
1.084,-8.659826833401496e-8
1.085,-8.632598136326664e-8
1.086,-8.603823520303422e-8
1.087,-8.573209209217225e-8
1.088,-8.540332330220224e-8
1.089,-8.506767201765797e-8
1.09,-8.482288749167566e-8
1.091,-8.458129441279993e-8
1.092,-8.434087117592526e-8
1.093,-8.410083962573367e-8
1.094,-8.385881722361432e-8
1.095,-8.361267156420382e-8
1.096,-8.335975609785606e-8
1.097,-8.309758381397359e-8
1.098,-8.282319285957129e-8
1.099,-8.253362737686842e-8
1.1,-8.229193004805069e-8
1.101,-8.206888491013586e-8
1.102,-8.184582922510231e-8
1.103,-8.16210671272799e-8
1.104,-8.13915398412135e-8
1.105,-8.115549710030479e-8
1.106,-8.090993963705273e-8
1.107,-8.065196999140767e-8
1.108,-8.037853915787707e-8
1.109,-8.008601859454956e-8
1.11,-7.980997274170676e-8
1.111,-7.959066972151874e-8
1.112,-7.937228796439655e-8
1.113,-7.915331468044684e-8
1.114,-7.893202536024546e-8
1.115,-7.870597429349147e-8
1.116,-7.847322769372056e-8
1.117,-7.823139203111396e-8
1.118,-7.797733858616596e-8
1.119,-7.770825682928972e-8
1.12,-7.742081620243368e-8
1.121,-7.720766936891721e-8
1.122,-7.69954272561435e-8
1.123,-7.678356550577803e-8
1.124,-7.656957812240961e-8
1.125,-7.635179100073941e-8
1.126,-7.612816277369205e-8
1.127,-7.589639638982959e-8
1.128,-7.565377468932155e-8
1.129,-7.539763535735489e-8
1.13,-7.5125061504977e-8
1.131,-7.488635189734083e-8
1.132,-7.467946605554943e-8
1.133,-7.447290573114884e-8
1.134,-7.42654098218054e-8
1.135,-7.405524693471222e-8
1.136,-7.384068967386526e-8
1.137,-7.361958798135504e-8
1.138,-7.338958940561469e-8
1.139,-7.314818395443012e-8
1.14,-7.289291337198023e-8
1.141,-7.263774537413781e-8
1.142,-7.243629907005555e-8
1.143,-7.223564957303807e-8
1.144,-7.203491592111533e-8
1.145,-7.183202233029817e-8
1.146,-7.162561976858939e-8
1.147,-7.141420266254528e-8
1.148,-7.119507106079226e-8
1.149,-7.09661994724442e-8
1.15,-7.0725459266896e-8
1.151,-7.046968064639003e-8
1.152,-7.024496384566703e-8
1.153,-7.002886970308708e-8
1.154,-6.981227440583382e-8
1.155,-6.959554965657588e-8
1.156,-6.937848506805011e-8
1.157,-6.91610804182119e-8
1.158,-6.894336335161455e-8
1.159,-6.872564772830714e-8
1.16,-6.850727385376842e-8
1.161,-6.828891174759377e-8
1.162,-6.807989316737206e-8
1.163,-6.788430395587852e-8
1.164,-6.769044547105807e-8
1.165,-6.749665770744429e-8
1.166,-6.730216350891993e-8
1.167,-6.710525302100478e-8
1.168,-6.69045716605865e-8
1.169,-6.669846497331378e-8
1.17,-6.648474837334106e-8
1.171,-6.626165882650525e-8
1.172,-6.60299829258193e-8
1.173,-6.584833489586828e-8
1.174,-6.56685600342044e-8
1.175,-6.54896856744358e-8
1.176,-6.531048268865192e-8
1.177,-6.512966477245641e-8
1.178,-6.494552817759569e-8
1.179,-6.475663727467662e-8
1.18,-6.456123879949871e-8
1.181,-6.435711219499041e-8
1.182,-6.414250630637497e-8
1.183,-6.395241691770082e-8
1.184,-6.377959271830491e-8
1.185,-6.360581383813013e-8
1.186,-6.343056535573766e-8
1.187,-6.325198376178065e-8
1.188,-6.306887667673067e-8
1.189,-6.287979459340676e-8
1.19,-6.26821941018818e-8
1.191,-6.247499095834996e-8
1.192,-6.22555416107673e-8
1.193,-6.203959357353739e-8
1.194,-6.186488255011113e-8
1.195,-6.169131416822182e-8
1.196,-6.151759890382635e-8
1.197,-6.13429101958829e-8
1.198,-6.116595374638933e-8
1.199,-6.098533589238286e-8
1.2,-6.08000207957815e-8
1.201,-6.060819623954217e-8
1.202,-6.040794919837111e-8
1.203,-6.019756704223056e-8
1.204,-6.002365682267197e-8
1.205,-5.985554474285948e-8
1.206,-5.968735938832737e-8
1.207,-5.951826809180716e-8
1.208,-5.9347442626922486e-8
1.209,-5.9173020261482634e-8
1.21,-5.8994215290653074e-8
1.211,-5.880885134423863e-8
1.212,-5.861610052892985e-8
1.213,-5.841378114546103e-8
1.214,-5.822594106863477e-8
1.215,-5.80619685663919e-8
1.216,-5.789845114456682e-8
1.217,-5.773472711023686e-8
1.218,-5.756987175864481e-8
1.219,-5.740270381249246e-8
1.22,-5.723177654015643e-8
1.221,-5.7056116387066425e-8
1.222,-5.687417337085776e-8
1.223,-5.668424873928046e-8
1.224,-5.648970502480921e-8
1.225,-5.633064570353952e-8
1.226,-5.617212062158927e-8
1.227,-5.601368213703495e-8
1.228,-5.5854362801532886e-8
1.229,-5.569309102781972e-8
1.23,-5.552858961532792e-8
1.231,-5.535999236805367e-8
1.232,-5.5185654712630594e-8
1.233,-5.500456379259333e-8
1.234,-5.4814756955678945e-8
1.235,-5.46382972199666e-8
1.236,-5.446906514716687e-8
1.237,-5.429886584806809e-8
1.238,-5.412789172432042e-8
1.239,-5.395587798773249e-8
1.24,-5.378279954726395e-8
1.241,-5.360853427838208e-8
1.242,-5.3432830937616416e-8
1.243,-5.325596441618785e-8
1.244,-5.307735728710128e-8
1.245,-5.290019089443376e-8
1.246,-5.27290772156519e-8
1.247,-5.255965529471496e-8
1.248,-5.239258771272404e-8
1.249,-5.2228081304228624e-8
1.25,-5.206670095070365e-8
1.251,-5.190921892328504e-8
1.252,-5.175610151564314e-8
1.253,-5.1607759399274755e-8
1.254,-5.146497128460936e-8
1.255,-5.1328567507447076e-8
1.256,-5.117915180541388e-8
1.257,-5.102958311464789e-8
1.258,-5.087997501096453e-8
1.259,-5.073062170346532e-8
1.26,-5.0581066002308717e-8
1.261,-5.043076034549898e-8
1.262,-5.02796050350085e-8
1.263,-5.012725667885576e-8
1.264,-4.997334079881455e-8
1.265,-4.981724655017672e-8
1.266,-4.9673056223831225e-8
1.267,-4.954102994503273e-8
1.268,-4.9411311264790925e-8
1.269,-4.928377572710474e-8
1.27,-4.915709750363817e-8
1.271,-4.9031560589440915e-8
1.272,-4.8905899996398716e-8
1.273,-4.8779094541373524e-8
1.274,-4.8650710349207316e-8
1.275,-4.851983659293069e-8
1.276,-4.838473433022017e-8
1.277,-4.824501265154879e-8
1.278,-4.809903753066891e-8
1.279,-4.794558927656567e-8
1.28,-4.77834471990235e-8
1.281,-4.761076888293303e-8
1.282,-4.742638604060545e-8
1.283,-4.722881630225828e-8
1.284,-4.7015696336139e-8
1.285,-4.689275923119851e-8
1.286,-4.67879723853315e-8
1.287,-4.66852868585832e-8
1.288,-4.6583613078077235e-8
1.289,-4.6482614757259455e-8
1.29,-4.638104800225307e-8
1.291,-4.6278097798335693e-8
1.292,-4.617237270299057e-8
1.293,-4.606347059343818e-8
1.294,-4.594948355141071e-8
1.295,-4.5829745998204885e-8
1.296,-4.5702663431512747e-8
1.297,-4.556679078504544e-8
1.298,-4.542084153236203e-8
1.299,-4.5263169323739305e-8
1.3,-4.5091706368793893e-8
1.301,-4.490558114245147e-8
1.302,-4.4702732293622205e-8
1.303,-4.4503992602251685e-8
1.304,-4.441742351701805e-8
1.305,-4.4332339022012945e-8
1.306,-4.424776456346535e-8
1.307,-4.416293675202354e-8
1.308,-4.407714004894814e-8
1.309,-4.398945629979778e-8
1.31,-4.389823338168952e-8
1.311,-4.380271290127524e-8
1.312,-4.370170636480708e-8
1.313,-4.359382943519563e-8
1.314,-4.3477693223437086e-8
1.315,-4.335169878633138e-8
1.316,-4.321456292810666e-8
1.317,-4.306490319905265e-8
1.318,-4.2900801022760504e-8
1.319,-4.2720923909556063e-8
1.32,-4.252320984221569e-8
1.321,-4.230601002852552e-8
1.322,-4.214046889217116e-8
1.323,-4.2054990934126124e-8
1.324,-4.197094161106918e-8
1.325,-4.188735114318831e-8
1.326,-4.180315038571081e-8
1.327,-4.1718097087972694e-8
1.328,-4.163070643770084e-8
1.329,-4.154036636894176e-8
1.33,-4.144617093970737e-8
1.331,-4.134667985766782e-8
1.332,-4.124071251165873e-8
1.333,-4.112762119756752e-8
1.334,-4.100591388667141e-8
1.335,-4.087384264384042e-8
1.336,-4.073033832430184e-8
1.337,-4.057427416270798e-8
1.338,-4.0403644652187154e-8
1.339,-4.021732513681542e-8
1.34,-4.0013362179180945e-8
1.341,-3.989773034174249e-8
1.342,-3.981394658403303e-8
1.343,-3.9731105405671485e-8
1.344,-3.9648274885450974e-8
1.345,-3.9564890474963477e-8
1.346,-3.947996685127464e-8
1.347,-3.939309811684666e-8
1.348,-3.930298375642849e-8
1.349,-3.920875091267817e-8
1.35,-3.910972412590752e-8
1.351,-3.900445633142624e-8
1.352,-3.8892118969791056e-8
1.353,-3.87713698923875e-8
1.354,-3.864122288810279e-8
1.355,-3.850038210462259e-8
1.356,-3.8347557684836886e-8
1.357,-3.81812444993912e-8
1.358,-3.8000099067403426e-8
1.359,-3.78107953835638e-8
1.36,-3.772725132300536e-8
1.361,-3.764449651999513e-8
1.362,-3.756280408939716e-8
1.363,-3.748109989043513e-8
1.364,-3.739888398968105e-8
1.365,-3.731544473417614e-8
1.366,-3.7229918037340326e-8
1.367,-3.7141852260447195e-8
1.368,-3.705001994092072e-8
1.369,-3.69538122324542e-8
1.37,-3.685210703263664e-8
1.371,-3.674424131627774e-8
1.372,-3.662878222954191e-8
1.373,-3.6504914757706786e-8
1.374,-3.637140943979489e-8
1.375,-3.622729460861507e-8
1.376,-3.607113441272958e-8
1.377,-3.5901857597941955e-8
1.378,-3.575791374110793e-8
1.379,-3.56779769061788e-8
1.38,-3.5598895498090144e-8
1.381,-3.5520339114469834e-8
1.382,-3.5441457657547915e-8
1.383,-3.5362182626563765e-8
1.384,-3.528130043672917e-8
1.385,-3.519848401634107e-8
1.386,-3.5112885599097865e-8
1.387,-3.502375978126082e-8
1.388,-3.4930411674238826e-8
1.389,-3.483184185526511e-8
1.39,-3.472724829922669e-8
1.391,-3.461568531815118e-8
1.392,-3.44961933462784e-8
1.393,-3.436772066933713e-8
1.394,-3.422905525685138e-8
1.395,-3.4079501554096225e-8
1.396,-3.391769431981828e-8
1.397,-3.38098519181429e-8
1.398,-3.373450441213066e-8
1.399,-3.365996459336884e-8
1.4,-3.358638323014418e-8
1.401,-3.351266175677381e-8
1.402,-3.34384334665927e-8
1.403,-3.3363164564370607e-8
1.404,-3.3286284728539783e-8
1.405,-3.3207261385115316e-8
1.406,-3.31253142693555e-8
1.407,-3.3039859181904774e-8
1.408,-3.294995887248575e-8
1.409,-3.285482519377325e-8
1.41,-3.275393312129893e-8
1.411,-3.264607828512567e-8
1.412,-3.253032210270845e-8
1.413,-3.240634338652626e-8
1.414,-3.2272942762645584e-8
1.415,-3.212824084553034e-8
1.416,-3.197238662711044e-8
1.417,-3.180366314747829e-8
1.418,-3.162132999889877e-8
1.419,-3.14237735832279e-8
1.42,-3.121005220929618e-8
1.421,-3.097932788076463e-8
1.422,-3.072977172724478e-8
1.423,-3.055781327976348e-8
1.424,-3.0452582122642013e-8
1.425,-3.0345941093301576e-8
1.426,-3.023753825104336e-8
1.427,-3.012677618485782e-8
1.428,-3.001321224882503e-8
1.429,-2.9896241149351965e-8
1.43,-2.977484836463873e-8
1.431,-2.9648537402948705e-8
1.432,-2.9516860955425273e-8
1.433,-2.9378958932291255e-8
1.434,-2.9233708009890336e-8
1.435,-2.9080926444713384e-8
1.436,-2.8919128314264242e-8
1.437,-2.8747606517498525e-8
1.438,-2.856586767130409e-8
1.439,-2.837236900976592e-8
1.44,-2.81665148982313e-8
1.441,-2.7947391179061754e-8
1.442,-2.7713772832171912e-8
1.443,-2.7464642227137404e-8
1.444,-2.719887726154724e-8
1.445,-2.6915516038172882e-8
1.446,-2.661312559215645e-8
1.447,-2.6290841836917878e-8
1.448,-2.5947389681313382e-8
1.449,-2.5699211314567094e-8
1.45,-2.5573692274960536e-8
1.451,-2.5451898033601594e-8
1.452,-2.5333797282200976e-8
1.453,-2.521889130857602e-8
1.454,-2.5107200429808074e-8
1.455,-2.4997967917883557e-8
1.456,-2.4891009253735774e-8
1.457,-2.4786134589227515e-8
1.458,-2.4682532018260872e-8
1.459,-2.45800688691844e-8
1.46,-2.447804259286812e-8
1.461,-2.43760506224433e-8
1.462,-2.4273548837605574e-8
1.463,-2.4170087264963058e-8
1.464,-2.4064808812340743e-8
1.465,-2.3957311579003715e-8
1.466,-2.384663289056732e-8
1.467,-2.3732639631290908e-8
1.468,-2.361410333939773e-8
1.469,-2.3490734246678358e-8
1.47,-2.3361462986315473e-8
1.471,-2.322558045886325e-8
1.472,-2.3082382560879466e-8
1.473,-2.2931164411765792e-8
1.474,-2.2770696883611663e-8
1.475,-2.2656514553354157e-8
1.476,-2.2629826568199007e-8
1.477,-2.260814169208203e-8
1.478,-2.2591945536554192e-8
1.479,-2.2580014857886965e-8
1.48,-2.2572732349956937e-8
1.481,-2.256939080069742e-8
1.482,-2.2569332847055534e-8
1.483,-2.2572533397990924e-8
1.484,-2.2578072633727686e-8
1.485,-2.2586131187551928e-8
1.486,-2.2595840976080694e-8
1.487,-2.2606448490947173e-8
1.488,-2.2617920980572137e-8
1.489,-2.2629136786633808e-8
1.49,-2.263995635409799e-8
1.491,-2.264931420192795e-8
1.492,-2.2656917120222886e-8
1.493,-2.2662163701170357e-8
1.494,-2.2664035204122968e-8
1.495,-2.2661874710117047e-8
1.496,-2.2655339604327196e-8
1.497,-2.2643466768279552e-8
1.498,-2.2625493256711593e-8
1.499,-2.2600299520725287e-8
1.5,-2.25674378073748e-8
1.501,-2.2550852185609926e-8
1.502,-2.2588402370793403e-8
1.503,-2.26254710522511e-8
1.504,-2.266165433084666e-8
1.505,-2.269618304406862e-8
1.506,-2.2728806836624926e-8
1.507,-2.2758554707458245e-8
1.508,-2.2785121456259105e-8
1.509,-2.280752930960972e-8
1.51,-2.2825640155765825e-8
1.511,-2.2838210211872934e-8
1.512,-2.2844893754481177e-8
1.513,-2.2845019320705262e-8
1.514,-2.2837563840027997e-8
1.515,-2.282212285820151e-8
1.516,-2.27978712574739e-8
1.517,-2.2763627982591572e-8
1.518,-2.2719301662199598e-8
1.519,-2.2663084298102376e-8
1.52,-2.2594982662660357e-8
1.521,-2.2514025532771598e-8
1.522,-2.2418868650397883e-8
1.523,-2.2308799252357403e-8
1.524,-2.2183047176937976e-8
1.525,-2.2040534730649597e-8
1.526,-2.188059122776309e-8
1.527,-2.1730250820972685e-8
1.528,-2.1678219774834417e-8
1.529,-2.162547008133231e-8
1.53,-2.157276757230875e-8
1.531,-2.1519973913974866e-8
1.532,-2.14670817788587e-8
1.533,-2.1414901296701316e-8
1.534,-2.1363122049145034e-8
1.535,-2.1312294373743157e-8
1.536,-2.1262635652163908e-8
1.537,-2.121445175085057e-8
1.538,-2.116821928854762e-8
1.539,-2.112404473564311e-8
1.54,-2.1082364409785725e-8
1.541,-2.104323715279577e-8
1.542,-2.1007265482708704e-8
1.543,-2.0975032599679366e-8
1.544,-2.0946574141866847e-8
1.545,-2.0922278132218253e-8
1.546,-2.090286532752117e-8
1.547,-2.0888722973566587e-8
1.548,-2.0879853401822857e-8
1.549,-2.087722827948113e-8
1.55,-2.088132555755351e-8
1.551,-2.0892181873399807e-8
1.552,-2.0910596365553147e-8
1.553,-2.092905515560517e-8
1.554,-2.088930739496675e-8
1.555,-2.0848377801918616e-8
1.556,-2.0806271150419775e-8
1.557,-2.0762878638613813e-8
1.558,-2.071818494542299e-8
1.559,-2.067194670996031e-8
1.56,-2.0624335350660772e-8
1.561,-2.0575287917878882e-8
1.562,-2.0524427379875476e-8
1.563,-2.0472028183782243e-8
1.564,-2.0418102320007847e-8
1.565,-2.0362276420549108e-8
1.566,-2.030468992941792e-8
1.567,-2.024525769250829e-8
1.568,-2.018383093993492e-8
1.569,-2.0120556332159367e-8
1.57,-2.0055001881402745e-8
1.571,-1.9987602684068406e-8
1.572,-1.9918306337629588e-8
1.573,-1.9846795207278944e-8
1.574,-1.9772950055063632e-8
1.575,-1.969714469307604e-8
1.576,-1.961902562630513e-8
1.577,-1.9538532458618363e-8
1.578,-1.9456004252127457e-8
1.579,-1.937122273698577e-8
1.58,-1.9300038456293578e-8
1.581,-1.9228516556779596e-8
1.582,-1.9156653929819356e-8
1.583,-1.908549474016752e-8
1.584,-1.9014258056948563e-8
1.585,-1.8943005608562657e-8
1.586,-1.8872935880764885e-8
1.587,-1.880275823928912e-8
1.588,-1.8733835038808877e-8
1.589,-1.866576049280866e-8
1.59,-1.859875042864445e-8
1.591,-1.853287645570134e-8
1.592,-1.8468616747036037e-8
1.593,-1.8405883595029593e-8
1.594,-1.834485197083069e-8
1.595,-1.828616369436986e-8
1.596,-1.8229633802491207e-8
1.597,-1.8175283056365288e-8
1.598,-1.812370553633258e-8
1.599,-1.807492600036653e-8
1.6,-1.8029495452154265e-8
1.601,-1.7987429989929637e-8
1.602,-1.7948875052908875e-8
1.603,-1.7913961425364278e-8
1.604,-1.788344494713101e-8
1.605,-1.7857416989564e-8
1.606,-1.7803836405150264e-8
1.607,-1.7748398195571724e-8
1.608,-1.7693165488275042e-8
1.609,-1.7638092097982394e-8
1.61,-1.758306400478915e-8
1.611,-1.7528466234040252e-8
1.612,-1.747409006380707e-8
1.613,-1.741950217404309e-8
1.614,-1.7365393012447328e-8
1.615,-1.7311602928948844e-8
1.616,-1.725784259942742e-8
1.617,-1.7204385582836323e-8
1.618,-1.715096076271294e-8
1.619,-1.7097795956821926e-8
1.62,-1.7045047595587448e-8
1.621,-1.699244389641308e-8
1.622,-1.694004814201122e-8
1.623,-1.6888015430538417e-8
1.624,-1.6836268379449848e-8
1.625,-1.6784660994417777e-8
1.626,-1.673370475518965e-8
1.627,-1.6682951575752725e-8
1.628,-1.663245896565968e-8
1.629,-1.6582524131614207e-8
1.63,-1.6533056035328286e-8
1.631,-1.6483952536283653e-8
1.632,-1.6433324478981604e-8
1.633,-1.6382614265175732e-8
1.634,-1.6332070140734345e-8
1.635,-1.6281822889929742e-8
1.636,-1.62315738627683e-8
1.637,-1.6181871176357276e-8
1.638,-1.6132366664756148e-8
1.639,-1.6083044451775663e-8
1.64,-1.6034077288118453e-8
1.641,-1.5985766599335705e-8
1.642,-1.5937446473657246e-8
1.643,-1.588974585242653e-8
1.644,-1.5842367750984465e-8
1.645,-1.5795572627652632e-8
1.646,-1.574943719884203e-8
1.647,-1.570369934089655e-8
1.648,-1.5658495722270516e-8
1.649,-1.561435147845458e-8
1.65,-1.5570362887906697e-8
1.651,-1.5527315877505998e-8
1.652,-1.5485197346620794e-8
1.653,-1.5444070355918882e-8
1.654,-1.5403716857598226e-8
1.655,-1.5364149397179006e-8
1.656,-1.5325831714818605e-8
1.657,-1.5288570964777648e-8
1.658,-1.5246104934085736e-8
1.659,-1.5201313097179536e-8
1.66,-1.5156829902274183e-8
1.661,-1.5112484152979277e-8
1.662,-1.5068020942088367e-8
1.663,-1.502350743809444e-8
1.664,-1.4979347318089253e-8
1.665,-1.493526768925335e-8
1.666,-1.4891187838372844e-8
1.667,-1.4846975537885498e-8
1.668,-1.480298761347143e-8
1.669,-1.4759023780896996e-8
1.67,-1.4715420437738658e-8
1.671,-1.467180088532416e-8
1.672,-1.4628577904574058e-8
1.673,-1.4585103680353484e-8
1.674,-1.454218312435529e-8
1.675,-1.4499400124989847e-8
1.676,-1.4456922547978479e-8
1.677,-1.4414676896556955e-8
1.678,-1.4372811052432155e-8
1.679,-1.4331176356741082e-8
1.68,-1.4290106098435729e-8
1.681,-1.4249221691464697e-8
1.682,-1.4208946019778068e-8
1.683,-1.4169292961163649e-8
1.684,-1.4129985625999097e-8
1.685,-1.4091177003017208e-8
1.686,-1.4053293306837134e-8
1.687,-1.4015795302135814e-8
1.688,-1.3979292501353768e-8
1.689,-1.3943488252898817e-8
1.69,-1.390875947748782e-8
1.691,-1.3874684845482932e-8
1.692,-1.3841520152269027e-8
1.693,-1.3809704269007739e-8
1.694,-1.3771279006036252e-8
1.695,-1.373090130485366e-8
1.696,-1.3690602540528118e-8
1.697,-1.3650423680289236e-8
1.698,-1.361019774659411e-8
1.699,-1.3570579548982664e-8
1.7,-1.3530715659015868e-8
1.701,-1.3491577743884875e-8
1.702,-1.345265931984585e-8
1.703,-1.3413623767277727e-8
1.704,-1.3375270335735934e-8
1.705,-1.3337094650900383e-8
1.706,-1.3299574108671663e-8
1.707,-1.3262561715521315e-8
1.708,-1.3225962325336127e-8
1.709,-1.31897759381161e-8
1.71,-1.3154160871664544e-8
1.711,-1.3119474728817693e-8
1.712,-1.3085297734249934e-8
1.713,-1.3051979386169421e-8
1.714,-1.3019459954577428e-8
1.715,-1.2987826147892179e-8
1.716,-1.2957054207340946e-8
1.717,-1.2927023895770162e-8
1.718,-1.2898537904426632e-8
1.719,-1.2870945753640228e-8
1.72,-1.2844628471953001e-8
1.721,-1.281965855692846e-8
1.722,-1.2795887460725908e-8
1.723,-1.2773494040274613e-8
1.724,-1.2752889522182898e-8
1.725,-1.2733614385140868e-8
1.726,-1.271619098908161e-8
1.727,-1.2700616447425261e-8
1.728,-1.2686836137199009e-8
1.729,-1.2674941207713175e-8
1.73,-1.2649294500732822e-8
1.731,-1.2618909805972578e-8
1.732,-1.2588601272511823e-8
1.733,-1.2558352135982886e-8
1.734,-1.2528367787645323e-8
1.735,-1.2498277746075814e-8
1.736,-1.2468040044844031e-8
1.737,-1.2438122864999457e-8
1.738,-1.2408128524654671e-8
1.739,-1.2378487790343229e-8
1.74,-1.2348654099270107e-8
1.741,-1.2319276709860105e-8
1.742,-1.2289555484379378e-8
1.743,-1.226041723700888e-8
1.744,-1.2231434420861831e-8
1.745,-1.2202598265176334e-8
1.746,-1.2174227292938156e-8
1.747,-1.214559453011077e-8
1.748,-1.2117908898545693e-8
1.749,-1.2090251577667743e-8
1.75,-1.206284883092934e-8
1.751,-1.2035831553625087e-8
1.752,-1.2009486516362244e-8
1.753,-1.19833848399864e-8
1.754,-1.1957980716736927e-8
1.755,-1.1933006582864891e-8
1.756,-1.1908464325749435e-8
1.757,-1.1884823569729974e-8
1.758,-1.186193421265358e-8
1.759,-1.1839497382482023e-8
1.76,-1.1817953615711474e-8
1.761,-1.1797266274982121e-8
1.762,-1.177762498638657e-8
1.763,-1.175858876933944e-8
1.764,-1.1740617367195227e-8
1.765,-1.1723852444411875e-8
1.766,-1.1696035806529892e-8
1.767,-1.1664653576382022e-8
1.768,-1.1632608654110754e-8
1.769,-1.1600548965873259e-8
1.77,-1.1567640068044227e-8
1.771,-1.153458484282055e-8
1.772,-1.1501080643405714e-8
1.773,-1.1467368277173762e-8
1.774,-1.1432892854656984e-8
1.775,-1.1398111565696922e-8
1.776,-1.1363149421406149e-8
1.777,-1.1327491167278936e-8
1.778,-1.1291730994678062e-8
1.779,-1.1255410159449752e-8
1.78,-1.1218880158203604e-8
1.781,-1.1181892856093611e-8
1.782,-1.1144492662040761e-8
1.783,-1.1106759068013616e-8
1.784,-1.1068996830232436e-8
1.785,-1.1030930280320206e-8
1.786,-1.0991993093512065e-8
1.787,-1.0953314366624056e-8
1.788,-1.0914234405134948e-8
1.789,-1.087469680971509e-8
1.79,-1.0835188413160779e-8
1.791,-1.0795509375327583e-8
1.792,-1.0755528689898597e-8
1.793,-1.07157729356544e-8
1.794,-1.0675563433260038e-8
1.795,-1.0635481495491206e-8
1.796,-1.059521004265207e-8
1.797,-1.0554982665667012e-8
1.798,-1.051479836533531e-8
1.799,-1.0474537015525698e-8
1.8,-1.0434416219951004e-8
1.801,-1.0394576643868447e-8
1.802,-1.0351764667682062e-8
1.803,-1.0307972808654142e-8
1.804,-1.0264001981674653e-8
1.805,-1.0220146173800515e-8
1.806,-1.017591766405701e-8
1.807,-1.0131657401935001e-8
1.808,-1.0087599533470382e-8
1.809,-1.004329674980653e-8
1.81,-9.999241434854866e-9
1.811,-9.955191448973721e-9
1.812,-9.911216070079831e-9
1.813,-9.867326955514955e-9
1.814,-9.823799440589198e-9
1.815,-9.780482979060423e-9
1.816,-9.737436523771237e-9
1.817,-9.694769320667262e-9
1.818,-9.652435184470676e-9
1.819,-9.61068402638432e-9
1.82,-9.569309900037126e-9
1.821,-9.528618449827775e-9
1.822,-9.488448804439997e-9
1.823,-9.449097837510578e-9
1.824,-9.410238255291858e-9
1.825,-9.372226217330137e-9
1.826,-9.335037520763478e-9
1.827,-9.298758985032407e-9
1.828,-9.263574130002894e-9
1.829,-9.22930309954495e-9
1.83,-9.19632980878049e-9
1.831,-9.1646806810175e-9
1.832,-9.134059952842222e-9
1.833,-9.104851539376568e-9
1.834,-9.077015916680864e-9
1.835,-9.050977189950515e-9
1.836,-9.026388747557235e-9
1.837,-9.003565004661596e-9
1.838,-8.971489329212545e-9
1.839,-8.937594664359949e-9
1.84,-8.904325721204032e-9
1.841,-8.871355761108646e-9
1.842,-8.839096232726718e-9
1.843,-8.807605644811645e-9
1.844,-8.776797844056716e-9
1.845,-8.746550150817711e-9
1.846,-8.716894317473134e-9
1.847,-8.688352148844558e-9
1.848,-8.660467898380375e-9
1.849,-8.633312731376463e-9
1.85,-8.607434653917778e-9
1.851,-8.58220428057166e-9
1.852,-8.558037722927736e-9
1.853,-8.534946971394675e-9
1.854,-8.51279657876347e-9
1.855,-8.491727543358252e-9
1.856,-8.472098689260577e-9
1.857,-8.453753030934763e-9
1.858,-8.436553788904178e-9
1.859,-8.420679376008877e-9
1.86,-8.406219498269252e-9
1.861,-8.393117645333348e-9
1.862,-8.3814339912891e-9
1.863,-8.37180702539797e-9
1.864,-8.36338742704612e-9
1.865,-8.35677660404599e-9
1.866,-8.351825231400767e-9
1.867,-8.348798874457941e-9
1.868,-8.347664670615984e-9
1.869,-8.348352342757437e-9
1.87,-8.351160651898226e-9
1.871,-8.355991010233765e-9
1.872,-8.363214565321186e-9
1.873,-8.372494697539423e-9
1.874,-8.366518144953261e-9
1.875,-8.356114133967196e-9
1.876,-8.34538638194715e-9
1.877,-8.334411938371034e-9
1.878,-8.322593836318504e-9
1.879,-8.310580223991337e-9
1.88,-8.297362241727058e-9
1.881,-8.283740915437932e-9
1.882,-8.269433249274982e-9
1.883,-8.253942973546202e-9
1.884,-8.237610149564034e-9
1.885,-8.220202407649424e-9
1.886,-8.20158618797251e-9
1.887,-8.181426869313668e-9
1.888,-8.16000977899023e-9
1.889,-8.137152729403851e-9
1.89,-8.112516547420512e-9
1.891,-8.08623512593698e-9
1.892,-8.058278488931592e-9
1.893,-8.028469666854221e-9
1.894,-7.996310280589114e-9
1.895,-7.962038139908145e-9
1.896,-7.92578014330303e-9
1.897,-7.886938768741913e-9
1.898,-7.845493477098842e-9
1.899,-7.801567059040337e-9
1.9,-7.754930697601026e-9
1.901,-7.705141191749476e-9
1.902,-7.652588229767332e-9
1.903,-7.596884232796697e-9
1.904,-7.5377916131103e-9
1.905,-7.475495222841744e-9
1.906,-7.4093463586777375e-9
1.907,-7.3398883637665335e-9
1.908,-7.266369395075856e-9
1.909,-7.1889200148334e-9
1.91,-7.151566450147584e-9
1.911,-7.1245649380102805e-9
1.912,-7.097702758862567e-9
1.913,-7.0711317912142135e-9
1.914,-7.044843708392534e-9
1.915,-7.018521319679394e-9
1.916,-6.992472156852614e-9
1.917,-6.966631604932161e-9
1.918,-6.9407873892757266e-9
1.919,-6.915087169545586e-9
1.92,-6.889112613706061e-9
1.921,-6.8632678429381144e-9
1.922,-6.837596489006614e-9
1.923,-6.811472608170277e-9
1.924,-6.7854603047479145e-9
1.925,-6.759343640361237e-9
1.926,-6.732490009930814e-9
1.927,-6.7058846253686966e-9
1.928,-6.6786818297970285e-9
1.929,-6.65114041620285e-9
1.93,-6.623305126574053e-9
1.931,-6.594802814952061e-9
1.932,-6.565835541927356e-9
1.933,-6.536342467278189e-9
1.934,-6.50606168939305e-9
1.935,-6.475396219229879e-9
1.936,-6.443407030154447e-9
1.937,-6.410812880552896e-9
1.938,-6.377452677064355e-9
1.939,-6.343162550770387e-9
1.94,-6.307468103372571e-9
1.941,-6.270726160551021e-9
1.942,-6.233086602414062e-9
1.943,-6.1938627560209625e-9
1.944,-6.153626719296312e-9
1.945,-6.111738448666415e-9
1.946,-6.091043447398192e-9
1.947,-6.0760649844837644e-9
1.948,-6.062051194355433e-9
1.949,-6.048605727393408e-9
1.95,-6.035700605977468e-9
1.951,-6.023616272443633e-9
1.952,-6.012274900157877e-9
1.953,-6.00153582386298e-9
1.954,-5.991220519696583e-9
1.955,-5.981762973839011e-9
1.956,-5.9727726098302014e-9
1.957,-5.964109428546749e-9
1.958,-5.9559062126623985e-9
1.959,-5.948392334254038e-9
1.96,-5.941169334278129e-9
1.961,-5.934575386667973e-9
1.962,-5.9278515429639356e-9
1.963,-5.921749424153688e-9
1.964,-5.915976597492545e-9
1.965,-5.91040161257439e-9
1.966,-5.904943090051518e-9
1.967,-5.8997764451618195e-9
1.968,-5.894559507169106e-9
1.969,-5.88958004588136e-9
1.97,-5.88454274197403e-9
1.971,-5.879367548367043e-9
1.972,-5.874232211766639e-9
1.973,-5.869161823213176e-9
1.974,-5.8638109923236925e-9
1.975,-5.858046270290629e-9
1.976,-5.8519978862747735e-9
1.977,-5.8456829377107056e-9
1.978,-5.839023042852887e-9
1.979,-5.831830129920945e-9
1.98,-5.8242336509195525e-9
1.981,-5.816094494903723e-9
1.982,-5.815342651871447e-9
1.983,-5.816540471492715e-9
1.984,-5.817509030059398e-9
1.985,-5.818581949590396e-9
1.986,-5.819781545568503e-9
1.987,-5.821038429054681e-9
1.988,-5.822210380479476e-9
1.989,-5.823277193783838e-9
1.99,-5.824051574343514e-9
1.991,-5.824664972564619e-9
1.992,-5.824936200049535e-9
1.993,-5.8249890466655074e-9
1.994,-5.824748350313769e-9
1.995,-5.824134841070361e-9
1.996,-5.822703541547014e-9
1.997,-5.820999682271122e-9
1.998,-5.8186863105547104e-9
1.999,-5.815474546366772e-9
2,-5.812115788650374e-9
2.001,-5.807598180140872e-9
2.002,-5.802309077651557e-9
2.003,-5.79637737807559e-9
2.004,-5.7891016425060116e-9
2.005,-5.781177314645447e-9
2.006,-5.772168076845219e-9
2.007,-5.76183556422194e-9
2.008,-5.750360521084019e-9
2.009,-5.737562647212258e-9
2.01,-5.7237223849426755e-9
2.011,-5.7082422122434195e-9
2.012,-5.691515148065207e-9
2.013,-5.672779690435448e-9
2.014,-5.653107093550602e-9
2.015,-5.631009325490766e-9
2.016,-5.607656228256985e-9
2.017,-5.582450057772803e-9
2.018,-5.57204027362701e-9
2.019,-5.564648741795963e-9
2.02,-5.557120208443678e-9
2.021,-5.548964177037874e-9
2.022,-5.540512715285217e-9
2.023,-5.5315851898996016e-9
2.024,-5.52225298822151e-9
2.025,-5.512492240455913e-9
2.026,-5.5021687206391334e-9
2.027,-5.491152310632685e-9
2.028,-5.4796213122543236e-9
2.029,-5.46733958106671e-9
2.03,-5.454382390190915e-9
2.031,-5.440829231595501e-9
2.032,-5.426437743594192e-9
2.033,-5.411237347097142e-9
2.034,-5.3950909295608085e-9
2.035,-5.378133716149591e-9
2.036,-5.360174859525557e-9
2.037,-5.3413454770279145e-9
2.038,-5.321201812513721e-9
2.039,-5.300131000751662e-9
2.04,-5.277999259867272e-9
2.041,-5.254364277007539e-9
2.042,-5.229874422418845e-9
2.043,-5.20377407831063e-9
2.044,-5.176606032719633e-9
2.045,-5.147872128574704e-9
2.046,-5.11780751111246e-9
2.047,-5.086019827515997e-9
2.048,-5.053000240451411e-9
2.049,-5.017991910882813e-9
2.05,-4.9813825286904034e-9
2.051,-4.9432488102851835e-9
2.052,-4.903358274965797e-9
2.053,-4.8614162695415075e-9
2.054,-4.839683875879075e-9
2.055,-4.822098498280525e-9
2.056,-4.804749487163917e-9
2.057,-4.7875213793346916e-9
2.058,-4.770600137149472e-9
2.059,-4.753555327141612e-9
2.06,-4.737097158979964e-9
2.061,-4.7204287145774515e-9
2.062,-4.704103218067246e-9
2.063,-4.6879995441173605e-9
2.064,-4.672106368452944e-9
2.065,-4.6563982669667325e-9
2.066,-4.640655193455245e-9
2.067,-4.624860272528508e-9
2.068,-4.60951210534688e-9
2.069,-4.594234992438828e-9
2.07,-4.5787479363568195e-9
2.071,-4.563503797072599e-9
2.072,-4.548484588973167e-9
2.073,-4.533414088569998e-9
2.074,-4.5182746433169996e-9
2.075,-4.503203143713108e-9
2.076,-4.4882405569879325e-9
2.077,-4.4731514048379495e-9
2.078,-4.457773372656959e-9
2.079,-4.44296888169049e-9
2.08,-4.427783029115062e-9
2.081,-4.412511578344436e-9
2.082,-4.397191388783028e-9
2.083,-4.381440543710369e-9
2.084,-4.365712125142807e-9
2.085,-4.349981375106893e-9
2.086,-4.333875369688656e-9
2.087,-4.317530000186309e-9
2.088,-4.300977796134475e-9
2.089,-4.2842578373836204e-9
2.09,-4.270936271311143e-9
2.091,-4.258224328701488e-9
2.092,-4.24605872684225e-9
2.093,-4.23341872668459e-9
2.094,-4.22130574939672e-9
2.095,-4.20917656285269e-9
2.096,-4.1971854880529236e-9
2.097,-4.185017332680729e-9
2.098,-4.1733591027437456e-9
2.099,-4.161556654835863e-9
2.1,-4.149854682111709e-9
2.101,-4.13804157606279e-9
2.102,-4.126580410712677e-9
2.103,-4.1150216567586995e-9
2.104,-4.1035501663344576e-9
2.105,-4.091939453942928e-9
2.106,-4.0801860778927335e-9
2.107,-4.06907429972847e-9
2.108,-4.0576895177224515e-9
2.109,-4.046265100754454e-9
2.11,-4.034737433045166e-9
2.111,-4.023104516193143e-9
2.112,-4.011638465861722e-9
2.113,-3.999884867766923e-9
2.114,-3.988350538719487e-9
2.115,-3.976549867168444e-9
2.116,-3.9648035965456074e-9
2.117,-3.952961735720351e-9
2.118,-3.940945458857925e-9
2.119,-3.928736558300727e-9
2.12,-3.916691859728871e-9
2.121,-3.904243484065262e-9
2.122,-3.891510225173533e-9
2.123,-3.87898457798741e-9
2.124,-3.866079123504562e-9
2.125,-3.853156571587135e-9
2.126,-3.84196086056221e-9
2.127,-3.831237327389658e-9
2.128,-3.820309624202878e-9
2.129,-3.809677018296043e-9
2.13,-3.798830472412362e-9
2.131,-3.7882680326006835e-9
2.132,-3.777579027364197e-9
2.133,-3.767054668202263e-9
2.134,-3.756439048707705e-9
2.135,-3.745967980250953e-9
2.136,-3.7353860005140405e-9
2.137,-3.7250859064030806e-9
2.138,-3.7145502229662952e-9
2.139,-3.7042711120705007e-9
2.14,-3.693832795192975e-9
2.141,-3.6837298766911886e-9
2.142,-3.6733860397930584e-9
2.143,-3.663090386574197e-9
2.144,-3.6530459768258083e-9
2.145,-3.642807500092715e-9
2.146,-3.632733447389569e-9
2.147,-3.622484978649254e-9
2.148,-3.612728782798058e-9
2.149,-3.6025509242421094e-9
2.15,-3.5927234520727325e-9
2.151,-3.5829569311474074e-9
2.152,-3.573186191374589e-9
2.153,-3.5634316608579297e-9
2.154,-3.5536843467909307e-9
2.155,-3.54400864210902e-9
2.156,-3.5347086368986425e-9
2.157,-3.5250206087411584e-9
2.158,-3.5158129740864297e-9
2.159,-3.506474333114795e-9
2.16,-3.4969973583542924e-9
2.161,-3.488013544661328e-9
2.162,-3.476868015717116e-9
2.163,-3.465078224351714e-9
2.164,-3.453078822879263e-9
2.165,-3.4410265747908397e-9
2.166,-3.428858308396343e-9
2.167,-3.4163345485893615e-9
2.168,-3.403764492482253e-9
2.169,-3.3909709484802875e-9
2.17,-3.3779636865460816e-9
2.171,-3.3645255470560187e-9
2.172,-3.3511482477877053e-9
2.173,-3.337364384847774e-9
2.174,-3.3234153207217787e-9
2.175,-3.309165608200715e-9
2.176,-3.294865269509728e-9
2.177,-3.2799699622998446e-9
2.178,-3.265005044106317e-9
2.179,-3.249594926479915e-9
2.18,-3.23432758353448e-9
2.181,-3.218165289808894e-9
2.182,-3.202070053553996e-9
2.183,-3.185797514682065e-9
2.184,-3.168972639855383e-9
2.185,-3.151878646967532e-9
2.186,-3.134513426594765e-9
2.187,-3.1168136960246784e-9
2.188,-3.098685974478599e-9
2.189,-3.0803357642383844e-9
2.19,-3.061838893536617e-9
2.191,-3.0425817421075863e-9
2.192,-3.0231186443074876e-9
2.193,-3.0031597209045913e-9
2.194,-2.983067348694135e-9
2.195,-2.9626112674208116e-9
2.196,-2.9416439284446483e-9
2.197,-2.920315322896272e-9
2.198,-2.9035122084408727e-9
2.199,-2.887505234916432e-9
2.2,-2.871809456905794e-9
2.201,-2.8561255582815193e-9
2.202,-2.840629953482221e-9
2.203,-2.825708111942049e-9
2.204,-2.8108266825199735e-9
2.205,-2.796338272048615e-9
2.206,-2.7821809300832e-9
2.207,-2.768210105585922e-9
2.208,-2.75474043576196e-9
2.209,-2.7415847370093616e-9
2.21,-2.7290745219232804e-9
2.211,-2.7166237037690166e-9
2.212,-2.7046823669607534e-9
2.213,-2.693553047272701e-9
2.214,-2.6828236299181185e-9
2.215,-2.672551513427379e-9
2.216,-2.6628571569986548e-9
2.217,-2.6538617969862344e-9
2.218,-2.6454949342280543e-9
2.219,-2.6377359185758564e-9
2.22,-2.6306808953435734e-9
2.221,-2.6241703254825666e-9
2.222,-2.618937844367508e-9
2.223,-2.6141111497679503e-9
2.224,-2.6102270345162992e-9
2.225,-2.607053128933501e-9
2.226,-2.604933602157189e-9
2.227,-2.60359778181396e-9
2.228,-2.6033510902578882e-9
2.229,-2.604089832658474e-9
2.23,-2.605877957861935e-9
2.231,-2.608782190272052e-9
2.232,-2.612513871902422e-9
2.233,-2.6177247036685003e-9
2.234,-2.6151985021982682e-9
2.235,-2.611940663754808e-9
2.236,-2.6091053761945204e-9
2.237,-2.605950899514653e-9
2.238,-2.6034923106266206e-9
2.239,-2.6009603359966604e-9
2.24,-2.598978254830797e-9
2.241,-2.596869719262429e-9
2.242,-2.5948621029669994e-9
2.243,-2.5932936909001114e-9
2.244,-2.5918049928463915e-9
2.245,-2.590546555047979e-9
2.246,-2.58924814922068e-9
2.247,-2.5883990506514465e-9
2.248,-2.587804637244062e-9
2.249,-2.586896807876826e-9
2.25,-2.586234004731125e-9
2.251,-2.5860610319838884e-9
2.252,-2.5857648244809184e-9
2.253,-2.585620495487717e-9
2.254,-2.585516578612612e-9
2.255,-2.585385905362614e-9
2.256,-2.5855683150055597e-9
2.257,-2.585759717455005e-9
2.258,-2.585918146280619e-9
2.259,-2.5862331165527053e-9
2.26,-2.5864790309526597e-9
2.261,-2.586938552262552e-9
2.262,-2.5873023723477218e-9
2.263,-2.587780878471335e-9
2.264,-2.5880904086506007e-9
2.265,-2.58846954981351e-9
2.266,-2.588776304435214e-9
2.267,-2.5895807720388575e-9
2.268,-2.589837011512941e-9
2.269,-2.590094139165444e-9
2.27,-2.5886388588247655e-9
2.271,-2.586945990756817e-9
2.272,-2.5850118712256176e-9
2.273,-2.5826049077082303e-9
2.274,-2.580333835489057e-9
2.275,-2.5772933787138186e-9
2.276,-2.573986690457275e-9
2.277,-2.57080978727231e-9
2.278,-2.5668602798845086e-9
2.279,-2.5626923916277633e-9
2.28,-2.558130374197276e-9
2.281,-2.5533100078689586e-9
2.282,-2.547904887073571e-9
2.283,-2.541943988632056e-9
2.284,-2.535981424856004e-9
2.285,-2.529116249760932e-9
2.286,-2.5220557864358284e-9
2.287,-2.514264463293614e-9
2.288,-2.5061364095080307e-9
2.289,-2.4972341972073764e-9
2.29,-2.487806738393772e-9
2.291,-2.47793396912499e-9
2.292,-2.467338333644875e-9
2.293,-2.4561035427694833e-9
2.294,-2.4442643464794855e-9
2.295,-2.43164888225067e-9
2.296,-2.418650724145266e-9
2.297,-2.4045219149115837e-9
2.298,-2.389817344017331e-9
2.299,-2.37467734365282e-9
2.3,-2.3580923880217597e-9
2.301,-2.341136728922777e-9
2.302,-2.3233189816451727e-9
2.303,-2.3046270447579786e-9
2.304,-2.28514185351969e-9
2.305,-2.2644318642406347e-9
2.306,-2.2432545820905148e-9
2.307,-2.220918449147291e-9
2.308,-2.1976631625619802e-9
2.309,-2.1852620823992197e-9
2.31,-2.175364777201594e-9
2.311,-2.1659302129606317e-9
2.312,-2.156814504772342e-9
2.313,-2.147362510029893e-9
2.314,-2.1383694814858245e-9
2.315,-2.129329490507814e-9
2.316,-2.1207313682936046e-9
2.317,-2.111912422719797e-9
2.318,-2.1034097796857054e-9
2.319,-2.0951886892106586e-9
2.32,-2.0870061234745663e-9
2.321,-2.0789826526979027e-9
2.322,-2.0711811155038617e-9
2.323,-2.0636781172811425e-9
2.324,-2.0559658420182814e-9
2.325,-2.0488436502930085e-9
2.326,-2.0415419355046538e-9
2.327,-2.0347062923420367e-9
2.328,-2.0282494572754217e-9
2.329,-2.0215615847973822e-9
2.33,-2.015337008387519e-9
2.331,-2.0091729391324975e-9
2.332,-2.0033512626582706e-9
2.333,-1.997363607841862e-9
2.334,-1.9921120308907803e-9
2.335,-1.986729114555885e-9
2.336,-1.9815942220446914e-9
2.337,-1.9766245307195618e-9
2.338,-1.9719834654097212e-9
2.339,-1.967542684333523e-9
2.34,-1.9633098480298372e-9
2.341,-1.959357009972962e-9
2.342,-1.955441475409714e-9
2.343,-1.9518878735524936e-9
2.344,-1.9490467018101754e-9
2.345,-1.946577787848014e-9
2.346,-1.9447072840961255e-9
2.347,-1.9427562891749517e-9
2.348,-1.941263039206831e-9
2.349,-1.9400728801244327e-9
2.35,-1.9391457328765682e-9
2.351,-1.9384867044891507e-9
2.352,-1.938105342880192e-9
2.353,-1.938059046580065e-9
2.354,-1.938409988078149e-9
2.355,-1.9388534111541844e-9
2.356,-1.939709060039263e-9
2.357,-1.9408303852941344e-9
2.358,-1.9423769259674373e-9
2.359,-1.943995409092736e-9
2.36,-1.946006467079542e-9
2.361,-1.9483658020291728e-9
2.362,-1.9510767446107025e-9
2.363,-1.953997186276979e-9
2.364,-1.9571348985891746e-9
2.365,-1.960749784757354e-9
2.366,-1.964705176327186e-9
2.367,-1.968478824387887e-9
2.368,-1.973072483174576e-9
2.369,-1.9776617010691666e-9
2.37,-1.9828213515538096e-9
2.371,-1.9882024915318652e-9
2.372,-1.99380856269471e-9
2.373,-1.999489351867112e-9
2.374,-2.0056203364759995e-9
2.375,-2.0121058152966498e-9
2.376,-2.018846201323754e-9
2.377,-2.026009915390148e-9
2.378,-2.0332379113696675e-9
2.379,-2.0380866994074154e-9
2.38,-2.039866053848982e-9
2.381,-2.041208313485754e-9
2.382,-2.0424312241473785e-9
2.383,-2.0431700775702666e-9
2.384,-2.043583968713847e-9
2.385,-2.0438272185785422e-9
2.386,-2.0438046810511423e-9
2.387,-2.0435660941231504e-9
2.388,-2.0427499691777484e-9
2.389,-2.0415147350405505e-9
2.39,-2.040121405144646e-9
2.391,-2.038314850238976e-9
2.392,-2.0360425567744755e-9
2.393,-2.033151647040654e-9
2.394,-2.0297472591579435e-9
2.395,-2.026196987969797e-9
2.396,-2.02208672028803e-9
2.397,-2.0172095105408516e-9
2.398,-2.0120860533268115e-9
2.399,-2.0061525773940048e-9
2.4,-2.000027254922543e-9
2.401,-1.993092801910734e-9
2.402,-1.9855043165151187e-9
2.403,-1.9774244464088042e-9
2.404,-1.968436524890649e-9
2.405,-1.9590594702023623e-9
2.406,-1.9488352043239843e-9
2.407,-1.9381229954262835e-9
2.408,-1.9267191175842413e-9
2.409,-1.9145194318781478e-9
2.41,-1.9013757235342155e-9
2.411,-1.887858425142497e-9
2.412,-1.873240007554955e-9
2.413,-1.8578900640164875e-9
2.414,-1.8440223792381971e-9
2.415,-1.8362246168024399e-9
2.416,-1.8281416380716564e-9
2.417,-1.8199927120932102e-9
2.418,-1.8116237399112833e-9
2.419,-1.803462046368054e-9
2.42,-1.794726034454186e-9
2.421,-1.786311210061342e-9
2.422,-1.7776496941124265e-9
2.423,-1.7689036901913369e-9
2.424,-1.7602351798373661e-9
2.425,-1.750976585945807e-9
2.426,-1.7423776865754803e-9
2.427,-1.7328855017595401e-9
2.428,-1.7236501115291958e-9
2.429,-1.7141595920477926e-9
2.43,-1.7047826483818085e-9
2.431,-1.6952149684001938e-9
2.432,-1.6853545226069855e-9
2.433,-1.6757810694656428e-9
2.434,-1.6657211165949093e-9
2.435,-1.6560123272668648e-9
2.436,-1.6459347218500398e-9
2.437,-1.6358044918618475e-9
2.438,-1.6255230494977013e-9
2.439,-1.615252598341499e-9
2.44,-1.604584021208666e-9
2.441,-1.5939903841299952e-9
2.442,-1.5833739874793196e-9
2.443,-1.5724297419694722e-9
2.444,-1.5614216586357088e-9
2.445,-1.550773287561924e-9
2.446,-1.5392940255765097e-9
2.447,-1.5281336196437678e-9
2.448,-1.516675340873519e-9
2.449,-1.5055503510552626e-9
2.45,-1.497815649287304e-9
2.451,-1.4903034362134804e-9
2.452,-1.4828221983620438e-9
2.453,-1.4756946775662527e-9
2.454,-1.4687253635514708e-9
2.455,-1.4619785382308237e-9
2.456,-1.4553653837623415e-9
2.457,-1.4492057553994186e-9
2.458,-1.4430988626301655e-9
2.459,-1.4377325996406398e-9
2.46,-1.4321314134591034e-9
2.461,-1.4268822789986757e-9
2.462,-1.4219921906644117e-9
2.463,-1.417374106971181e-9
2.464,-1.4129870606893746e-9
2.465,-1.4089480693257883e-9
2.466,-1.4052664587538288e-9
2.467,-1.4018035621177205e-9
2.468,-1.3988827873845366e-9
2.469,-1.3957845990120177e-9
2.47,-1.3934091658285297e-9
2.471,-1.3910920193538345e-9
2.472,-1.389573900389962e-9
2.473,-1.387983616929489e-9
2.474,-1.386800230207541e-9
2.475,-1.3860875780480342e-9
2.476,-1.3856532588008008e-9
2.477,-1.3856116254373774e-9
2.478,-1.3860783631969298e-9
2.479,-1.3868094450586455e-9
2.48,-1.3879186688825484e-9
2.481,-1.3892088590594653e-9
2.482,-1.3912675456140278e-9
2.483,-1.3934304821106025e-9
2.484,-1.3960729239315128e-9
2.485,-1.395697557526887e-9
2.486,-1.3947067944997116e-9
2.487,-1.393812509853376e-9
2.488,-1.3934933207337963e-9
2.489,-1.39266798093729e-9
2.49,-1.3919709829224303e-9
2.491,-1.3917257346562906e-9
2.492,-1.391160298069849e-9
2.493,-1.3908075802149256e-9
2.494,-1.3904678519693903e-9
2.495,-1.3901566564555878e-9
2.496,-1.3898237005705028e-9
2.497,-1.3894877470832512e-9
2.498,-1.3892079708810456e-9
2.499,-1.3889956962387373e-9
2.5,-1.3889127625787978e-9
2.501,-1.3884501326444365e-9
2.502,-1.3883982852291865e-9
2.503,-1.388194115214958e-9
2.504,-1.3876924054301298e-9
2.505,-1.387530645935442e-9
2.506,-1.3873033832823012e-9
2.507,-1.3870163906304356e-9
2.508,-1.3866311432408907e-9
2.509,-1.386316283991107e-9
2.51,-1.3860271819154946e-9
2.511,-1.38556666140488e-9
2.512,-1.3848409086136826e-9
2.513,-1.3843836077498395e-9
2.514,-1.3836305434722362e-9
2.515,-1.383164804913406e-9
2.516,-1.3823717726069162e-9
2.517,-1.3813696853048896e-9
2.518,-1.3804775100823008e-9
2.519,-1.3793950426332913e-9
2.52,-1.3745528049113886e-9
2.521,-1.3681654698061152e-9
2.522,-1.3611729521301186e-9
2.523,-1.3541472387856857e-9
2.524,-1.3469291237910852e-9
2.525,-1.3395733411414312e-9
2.526,-1.3317658087430573e-9
2.527,-1.3240816221227192e-9
2.528,-1.3158933942492013e-9
2.529,-1.3076715266180372e-9
2.53,-1.2993618403456253e-9
2.531,-1.2906027357928451e-9
2.532,-1.2818096584155114e-9
2.533,-1.2726699694098897e-9
2.534,-1.2636002244548195e-9
2.535,-1.2541829796930415e-9
2.536,-1.24467991469146e-9
2.537,-1.2351404343746708e-9
2.538,-1.225411661032183e-9
2.539,-1.2156490258874442e-9
2.54,-1.205644584167942e-9
2.541,-1.195396781561442e-9
2.542,-1.1851664094564285e-9
2.543,-1.174900732259232e-9
2.544,-1.1643941366656918e-9
2.545,-1.1539553756989562e-9
2.546,-1.1431713353715622e-9
2.547,-1.1325068660639204e-9
2.548,-1.1214953410387807e-9
2.549,-1.1107115227559916e-9
2.55,-1.0996342725277941e-9
2.551,-1.0886754830963241e-9
2.552,-1.0775280667729703e-9
2.553,-1.0662928318083686e-9
2.554,-1.0551803875102905e-9
2.555,-1.040012853614769e-9
2.556,-1.0215162049576065e-9
2.557,-1.0023913921131111e-9
2.558,-9.828946545553663e-10
2.559,-9.630798381010663e-10
2.56,-9.431018188621465e-10
2.561,-9.221812202753199e-10
2.562,-9.014091695291881e-10
2.563,-8.795399963901218e-10
2.564,-8.577146770605282e-10
2.565,-8.356756397986942e-10
2.566,-8.128498985016108e-10
2.567,-7.898630638436543e-10
2.568,-7.665532653078344e-10
2.569,-7.428231363348914e-10
2.57,-7.187226369609334e-10
2.571,-6.941474062216457e-10
2.572,-6.692520981843586e-10
2.573,-6.438835020716738e-10
2.574,-6.186113843398289e-10
2.575,-5.92709659130719e-10
2.576,-5.665398150611622e-10
2.577,-5.400520031173528e-10
2.578,-5.132960723130964e-10
2.579,-4.859636026921521e-10
2.58,-4.585184454342084e-10
2.581,-4.3075465416819725e-10
2.582,-4.0272540857699823e-10
2.583,-3.743263476962966e-10
2.584,-3.4576042029499376e-10
2.585,-3.167230921974351e-10
2.586,-2.874699367438893e-10
2.587,-2.579499946975261e-10
2.588,-2.2811175171000286e-10
2.589,-1.981106390047671e-10
2.59,-1.7365164861615767e-10
2.591,-1.5877232861782886e-10
2.592,-1.444757646851258e-10
2.593,-1.307124408711502e-10
2.594,-1.1748169104208728e-10
2.595,-1.0525136318051409e-10
2.596,-9.319145455322086e-11
2.597,-8.197442724622306e-11
2.598,-7.128964085723055e-11
2.599,-6.134548424796549e-11
2.6,-5.188405260980744e-11
2.601,-4.3108072667052966e-11
2.602,-3.5023317579430113e-11
2.603,-2.752154060203793e-11
2.604,-2.076128158279289e-11
2.605,-1.448163811090808e-11
2.606,-8.993028544068693e-12
2.607,-3.881672760996935e-12
2.608,2.275957200481571e-13
2.609,3.910094470427339e-12
2.61,6.8506311734495284e-12
2.611,9.103828801926284e-12
2.612,1.0772049918728044e-11
2.613,1.1647349751342517e-11
2.614,1.1781908781927086e-11
2.615,1.133326765767606e-11
2.616,9.987788374132833e-12
2.617,8.47255599012442e-12
2.618,5.854094986545988e-12
2.619,2.5474067300024217e-12
2.62,-1.2413403638333875e-12
2.621,-6.083022974223695e-12
2.622,-1.1351697359884838e-11
2.623,-1.751621070411602e-11
2.624,-2.4111157514994375e-11
2.625,-2.9527491562930663e-11
2.626,-2.6913027362240882e-11
2.627,-2.3910429192142146e-11
2.628,-2.124633802225162e-11
2.629,-1.8816059821347153e-11
2.63,-1.6413537196058314e-11
2.631,-1.4090839606240024e-11
2.632,-1.2158829498787327e-11
2.633,-1.0201617328675638e-11
2.634,-8.062217560222962e-12
2.635,-6.368683358459748e-12
2.636,-4.908740081077667e-12
2.637,-3.5276226384439724e-12
2.638,-2.173261570703744e-12
2.639,-1.0024203689340538e-12
2.64,-1.7186252421197423e-13
2.641,6.348255254806645e-13
2.642,1.0982326159592048e-12
2.643,1.5897283489607617e-12
2.644,1.740718680309783e-12
2.645,1.8128831769104181e-12
2.646,1.7010837183306649e-12
2.647,1.4067635945025359e-12
2.648,8.779643678735738e-13
2.649,2.701172618913006e-13
2.65,-6.761258219967203e-13
2.651,-1.5971668432257502e-12
2.652,-3.0152547125794626e-12
2.653,-4.459876912221716e-12
2.654,-6.191047674519723e-12
2.655,-8.000156093146416e-12
2.656,-1.0045742016018266e-11
2.657,-1.2430279028308178e-11
2.658,-1.4998335906568627e-11
2.659,-1.811062411150033e-11
2.66,-2.0850543513972752e-11
2.661,-2.2876922578518588e-11
2.662,-2.523325992598302e-11
2.663,-2.737587934120711e-11
2.664,-2.9906188636630304e-11
2.665,-3.2387759141272454e-11
2.666,-3.520805869072774e-11
2.667,-3.798406034150048e-11
2.668,-4.08489908565457e-11
2.669,-4.3984482722692064e-11
2.67,-4.736921965786678e-11
2.671,-5.0564663567342905e-11
2.672,-5.427691629478204e-11
2.673,-5.780387279941124e-11
2.674,-6.143552333526259e-11
2.675,-6.55121512593837e-11
2.676,-6.959821607921413e-11
2.677,-7.377232158489733e-11
2.678,-7.764489051709234e-11
2.679,-8.223677294694198e-11
2.68,-8.67946825522381e-11
2.681,-9.160683323017338e-11
2.682,-9.644474108227996e-11
2.683,-1.0112866100087103e-10
2.684,-1.0630973878988925e-10
2.685,-1.1165490754194707e-10
2.686,-1.1687883993971582e-10
2.687,-1.2227319157176453e-10
2.688,-1.278646077906842e-10
2.689,-1.336842858634668e-10
2.69,-1.394963033973795e-10
2.691,-1.4554446536862997e-10
2.692,-1.516460290673649e-10
2.693,-1.5767231964503026e-10
2.694,-1.6417389669953764e-10
2.695,-1.7076806635429875e-10
2.696,-1.7731915935570441e-10
2.697,-1.839643992695983e-10
2.698,-1.9078560953289525e-10
2.699,-1.9770862724755034e-10
2.7,-2.0449919535536765e-10
2.701,-2.120194020349686e-10
2.702,-2.1936275018674678e-10
2.703,-2.2671520216732688e-10
2.704,-2.344677785259819e-10
2.705,-2.4218160810107747e-10
2.706,-2.4983415336521375e-10
2.707,-2.5776358825169154e-10
2.708,-2.6579816125860134e-10
2.709,-2.7385604894902826e-10
2.71,-2.8227742365771746e-10
2.711,-2.906294094273676e-10
2.712,-2.991438208255204e-10
2.713,-3.0790203719988085e-10
2.714,-3.165717687991787e-10
2.715,-3.253376457124091e-10
2.716,-3.343809673594933e-10
2.717,-3.4331670839549133e-10
2.718,-3.525929548331419e-10
2.719,-3.618182420339622e-10
2.72,-3.712818941181695e-10
2.721,-3.8065028906686393e-10
2.722,-3.9042047372817024e-10
2.723,-4.000468845077876e-10
2.724,-4.099275363600441e-10
2.725,-4.200356729100463e-10
2.726,-4.2967096547386063e-10
2.727,-4.3990433518104055e-10
2.728,-4.5035075668664604e-10
2.729,-4.602560554900492e-10
2.73,-4.708946566012173e-10
2.731,-4.779153739420394e-10
2.732,-4.831266497973274e-10
2.733,-4.881131054901289e-10
2.734,-4.928317753893907e-10
2.735,-4.97560881385084e-10
2.736,-5.020994731097517e-10
2.737,-5.065180497254573e-10
2.738,-5.105184053277867e-10
2.739,-5.143712122901434e-10
2.74,-5.182974049944278e-10
2.741,-5.217415388614199e-10
2.742,-5.249795043127392e-10
2.743,-5.28226240525953e-10
2.744,-5.311832085297397e-10
2.745,-5.337664754634375e-10
2.746,-5.361414645577156e-10
2.747,-5.385303314398016e-10
2.748,-5.404792169372286e-10
2.749,-5.423629323431101e-10
2.75,-5.436785466272909e-10
2.751,-5.450112583460509e-10
2.752,-5.4616178246647e-10
2.753,-5.466300745382568e-10
2.754,-5.472050590427102e-10
2.755,-5.474863895571502e-10
2.756,-5.472281516816224e-10
2.757,-5.469094066512525e-10
2.758,-5.462866825567403e-10
2.759,-5.451107343290573e-10
2.76,-5.439159123099557e-10
2.761,-5.421967319563237e-10
2.762,-5.403824054894812e-10
2.763,-5.381206591437149e-10
2.764,-5.356873833406439e-10
2.765,-5.325229146535548e-10
2.766,-5.294209515227521e-10
2.767,-5.258242730121765e-10
2.768,-5.220043286513487e-10
2.769,-5.177157591518267e-10
2.77,-5.130235125605509e-10
2.771,-5.080457166073415e-10
2.772,-5.027956939684941e-10
2.773,-4.969208378113876e-10
2.774,-4.908023987226784e-10
2.775,-4.844010748072947e-10
2.776,-4.772611195136278e-10
2.777,-4.699144406927758e-10
2.778,-4.6243120443989483e-10
2.779,-4.541953479986205e-10
2.78,-4.4574477442438365e-10
2.781,-4.3662262694255105e-10
2.782,-4.272098230728716e-10
2.783,-4.1740977341220287e-10
2.784,-4.071379899883709e-10
2.785,-3.9640479787550476e-10
2.786,-3.8501712928962206e-10
2.787,-3.7335057267995353e-10
2.788,-3.6131664327143653e-10
2.789,-3.4866842746339444e-10
2.79,-3.3567804091916287e-10
2.791,-3.221520827878521e-10
2.792,-3.0815761054014956e-10
2.793,-2.93601920553499e-10
2.794,-2.785507380309582e-10
2.795,-2.629662043673875e-10
2.796,-2.469652260472799e-10
2.797,-2.3019897099629816e-10
2.798,-2.1309443098971315e-10
2.799,-1.9561607889073684e-10
2.8,-1.7741053071063106e-10
2.801,-1.6571954919442078e-10
2.802,-1.6926993140486957e-10
2.803,-1.7329504498064807e-10
2.804,-1.7767365356746723e-10
2.805,-1.8271040236328417e-10
2.806,-1.8761414644075103e-10
2.807,-1.9357360159233394e-10
2.808,-1.9984758292679317e-10
2.809,-2.065341231372031e-10
2.81,-2.1361801216812637e-10
2.811,-2.2099133634156942e-10
2.812,-2.2920965125905468e-10
2.813,-2.378495178589901e-10
2.814,-2.4679647214753686e-10
2.815,-2.561462153494176e-10
2.816,-2.6609614511841073e-10
2.817,-2.7663404900124533e-10
2.818,-2.875958360348818e-10
2.819,-2.9948898916387634e-10
2.82,-3.1137092904032215e-10
2.821,-3.2385416570690495e-10
2.822,-3.3718894343337524e-10
2.823,-3.5084357641324004e-10
2.824,-3.650175717240245e-10
2.825,-3.7990921519792664e-10
2.826,-3.9524794548384534e-10
2.827,-4.1138670248130893e-10
2.828,-4.2784609188828426e-10
2.829,-4.4519321562574987e-10
2.83,-4.6294501565569135e-10
2.831,-4.81301998256356e-10
2.832,-5.005649228451148e-10
2.833,-5.198924624139067e-10
2.834,-5.401594727061365e-10
2.835,-5.610918396570241e-10
2.836,-5.823748150390884e-10
2.837,-6.048214151732623e-10
2.838,-6.278569886219998e-10
2.839,-6.512577144235365e-10
2.84,-6.753286818650395e-10
2.841,-7.001655921712313e-10
2.842,-7.257044964958936e-10
2.843,-7.519835865110736e-10
2.844,-7.790524891859718e-10
2.845,-8.06582245438392e-10
2.846,-8.348799429569453e-10
2.847,-8.640335114051823e-10
2.848,-8.93987106564964e-10
2.849,-9.245185728090632e-10
2.85,-9.559308900009e-10
2.851,-9.880598561551324e-10
2.852,-1.020736162260505e-9
2.853,-1.0543180772870642e-9
2.854,-1.088740986254777e-9
2.855,-1.123784176826348e-9
2.856,-1.1598066951279407e-9
2.857,-1.1964317314649975e-9
2.858,-1.2339571586750253e-9
2.859,-1.2723296860528421e-9
2.86,-1.3115353247883377e-9
2.861,-1.351197709276164e-9
2.862,-1.3922953900902257e-9
2.863,-1.4336242193380144e-9
2.864,-1.4761628586157372e-9
2.865,-1.5193259983448115e-9
2.866,-1.563626006451102e-9
2.867,-1.6085847098779027e-9
2.868,-1.6544503544935196e-9
2.869,-1.7011622110985058e-9
2.87,-1.7489185655250594e-9
2.871,-1.7974471910875423e-9
2.872,-1.8096052434302123e-9
2.873,-1.819307593464714e-9
2.874,-1.8283589087175756e-9
2.875,-1.836449325942624e-9
2.876,-1.8439493265631768e-9
2.877,-1.8504967558286012e-9
2.878,-1.8564604298276777e-9
2.879,-1.8610588625733726e-9
2.88,-1.865132714939932e-9
2.881,-1.8683193880875137e-9
2.882,-1.8703106841044814e-9
2.883,-1.871940491504631e-9
2.884,-1.8722781103264197e-9
2.885,-1.871896526672856e-9
2.886,-1.8702280835114493e-9
2.887,-1.867849208636585e-9
2.888,-1.864345122726263e-9
2.889,-1.859880138788128e-9
2.89,-1.8545022184568438e-9
2.891,-1.8478564234314376e-9
2.892,-1.8403067958416841e-9
2.893,-1.8315969851911973e-9
2.894,-1.82173343077352e-9
2.895,-1.8110788424507973e-9
2.896,-1.7990161582659425e-9
2.897,-1.7861185863665696e-9
2.898,-1.7717156630681075e-9
2.899,-1.7562764575984602e-9
2.9,-1.7394408136084394e-9
2.901,-1.721626841089119e-9
2.902,-1.7027372845035416e-9
2.903,-1.6824631687839542e-9
2.904,-1.660753423671224e-9
2.905,-1.6379227973928323e-9
2.906,-1.6138189673498005e-9
2.907,-1.5883975246211435e-9
2.908,-1.56165524956009e-9
2.909,-1.5334451486381795e-9
2.91,-1.5038703615743998e-9
2.911,-1.4731967867831486e-9
2.912,-1.4409075044241604e-9
2.913,-1.4072142340282312e-9
2.914,-1.372429725421398e-9
2.915,-1.3358817385622501e-9
2.916,-1.2979927133116576e-9
2.917,-1.2585018582811358e-9
2.918,-1.2177295838355917e-9
2.919,-1.1753101825107137e-9
2.92,-1.1312493164439275e-9
2.921,-1.0859155796794084e-9
2.922,-1.0389448190650796e-9
2.923,-9.902397790639839e-10
2.924,-9.402691958371179e-10
2.925,-8.885187030571728e-10
2.926,-8.350924396438586e-10
2.927,-7.80049913551295e-10
2.928,-7.234435273062445e-10
2.929,-6.653284589930308e-10
2.93,-6.050853151862157e-10
2.931,-5.434453997921196e-10
2.932,-4.799945996225574e-10
2.933,-4.1484315982387443e-10
2.934,-3.4783587121722803e-10
2.935,-2.7913293898507163e-10
2.936,-2.0868373695748232e-10
2.937,-1.367006507990709e-10
2.938,-6.235900684714579e-11
2.939,1.3408496535305403e-11
2.94,9.132117284593733e-11
2.941,1.7106627225871307e-10
2.942,2.0870527528416005e-10
2.943,2.1615986778300567e-10
2.944,2.22421636664194e-10
2.945,2.2740076488503291e-10
2.946,2.3101043300499668e-10
2.947,2.333747639582384e-10
2.948,2.342414040512608e-10
2.949,2.338430560300253e-10
2.95,2.319833214414757e-10
2.951,2.2899293572464785e-10
2.952,2.2400137300593315e-10
2.953,2.1806789707312646e-10
2.954,2.1022028562356354e-10
2.955,2.0083434915108e-10
2.956,1.8987933447789374e-10
2.957,1.7768198024015192e-10
2.958,1.634771207292829e-10
2.959,1.4790779712114954e-10
2.96,1.3031364876070484e-10
2.961,1.1101952690495409e-10
2.962,9.046130511336514e-11
2.963,6.756217807435405e-11
2.964,4.332589842448442e-11
2.965,1.704314467332324e-11
2.966,-1.0962786234358646e-11
2.967,-4.1087244717630256e-11
2.968,-7.300393622955426e-11
2.969,-1.0659262361656374e-10
2.97,-1.4240708612334174e-10
2.971,-1.8022572323417307e-10
2.972,-2.2008050937216694e-10
2.973,-2.6175406286910174e-10
2.974,-3.055872221935374e-10
2.975,-3.5172442736097764e-10
2.976,-3.995750397223219e-10
2.977,-4.497975325534753e-10
2.978,-5.023775839774203e-10
2.979,-5.568340233352842e-10
2.98,-6.137661490157598e-10
2.981,-6.725947576669e-10
2.982,-7.340256180654592e-10
2.983,-7.979428229276664e-10
2.984,-8.637535131583718e-10
2.985,-9.32276145171329e-10
2.986,-1.0030292152407583e-9
2.987,-1.0759393376247317e-9
2.988,-1.1516153586299538e-9
2.989,-1.2298861928883298e-9
2.99,-1.3103718110585305e-9
2.991,-1.3933677545097112e-9
2.992,-1.479274702731459e-9
2.993,-1.5674491704587012e-9
2.994,-1.658296833184636e-9
2.995,-1.7518960726548016e-9
2.996,-1.8480322827585383e-9
2.997,-1.9469466039367944e-9
2.998,-2.0484113294472195e-9
2.999,-2.152826250600981e-9
3,-2.2598157789488482e-9
3.0000000006000214,-2.2598777293936223e-9
3.0000000006000214,-3.063029641259263e-6
3.000483590912302,358.9442119946204
3.000483590912302,358.9442119946204
3.0008724068775487,687.2612828608084
3.0008724068775487,687.2612828608084
3.001,686.8194438092816
3.001688038602151,514.2061090621382
3.001688038602151,514.2061090621382
3.002,-479.2932347503813
3.003,277.0546487790305
3.004,-62.676504969598184
3.005,-102.65938189117901
3.006,190.4470466929478
3.007,-200.71442956095112
3.008,154.35114448904065
3.009,-83.68562772251282
3.01,16.405384976011845
3.011,32.120392471733425
3.012,-54.824746527061336
3.013,57.729304577842015
3.0134429300474825,-33.15818328442488
3.0134429300474825,-33.15818328442488
3.0139226197008,-41.21677055394742
3.0139226197008,-41.21677055394742
3.014,-49.17991908768968
3.015,22.35450724577
3.016,15.636597894240357
3.017,-29.274853299648395
3.018,7.540848025367418
3.019,16.18328992796819
3.02,-13.639877730914762
3.021,-4.316806186136672
3.0210518470473606,-10.408171431117989
3.0210518470473606,-10.408171431117989
3.022,11.414329677911814
3.022365738747718,-7.49168824108995
3.022365738747718,-7.49168824108995
3.023,-2.554957125897167
3.024,-6.423396561772855
3.025,5.499627696306814
3.026,0.814609178968204
3.027,-4.195572609685977
3.02784523335202,1.5242732931035425
3.02784523335202,2.857402426657259
3.028,406.0691109458684
3.0283300720722286,355.72055615491263
3.0283300720722286,355.72055615491263
3.029,-738.2161423045061
3.0295332705039653,534.1963251619187
3.0295332705039653,534.1963251619187
3.03,160.9217187450566
3.031,-304.0855518966895
3.032,340.8791186316593
3.033,-281.27249359486245
3.034,172.0323529439557
3.035,-51.69180400909292
3.036,-42.2461696476138
3.037,93.16157026421932
3.038,-103.09554902362356
3.039,83.83340688497792
3.04,-52.50991902579509
3.041,22.928742429401822
3.0412881414307105,-36.32676543310785
3.0412881414307105,-36.32676543310785
3.0417678413848295,-39.09143355797703
3.0417678413848295,-39.09143355797703
3.042,3.1658979769392954
3.0421036807576813,44.56112209216452
3.0421036807576813,44.56112209216452
3.042976086531849,-27.67766242076906
3.042976086531849,-27.67766242076906
3.043,-34.11461079594012
3.044,30.984559679246544
3.045,1.2319001055661531
3.046,-23.085121517236438
3.047,11.674745490285868
3.048,9.531819547942234
3.049,-12.43552849949367
3.05,-0.9227427507231443
3.051,8.897161244008377
3.052,-4.209122643599309
3.053,-3.6045774950265703
3.054,5.242868218169582
3.055,-1.9990181396715667
3.055690444013085,1.0903176027301047
3.055690444013085,2.452484066293509
3.056,806.0724457651463
3.0561649001961637,386.52411095374214
3.0561649001961637,386.52411095374214
3.057,170.84639859325608
3.0573784798707626,528.9891446510178
3.0573784798707626,528.9891446510178
3.058,490.42242210160936
3.059,-304.1889920216673
3.06,102.36654727556235
3.061,56.141174407457726
3.062,-154.40346003930966
3.063,178.7540301440226
3.063155502247205,54.259113867541835
3.063155502247205,54.259113867541835
3.063328189676497,-174.22182516783096
3.063328189676497,-174.22182516783096
3.063803834956583,22.41411024033637
3.063803834956583,22.41411024033637
3.063992160241826,-150.03049722329536
3.063992160241826,-150.03049722329536
3.064,-147.14668494207666
3.064469392424272,-30.91972954285911
3.064469392424272,-30.91972954285911
3.064536982430156,-108.12288014867863
3.064536982430156,-108.12288014867863
3.0647016960432003,-77.97489430080545
3.0647016960432003,-77.97489430080545
3.0647543730053206,-13.141809159947842
3.0647543730053206,-13.141809159947842
3.064939735906872,123.56588882434325
3.064939735906872,123.56588882434325
3.065,87.30492417049851
3.06513708218327,-67.80899413521315
3.06513708218327,-67.80899413521315
3.0652925627936636,-101.91757136889
3.0652925627936636,-101.91757136889
3.065393671164719,-1.5568889184511
3.065393671164719,-1.5568889184511
3.065587689455885,105.29652829369846
3.065587689455885,105.29652829369846
3.0657658141339565,-54.873011088207775
3.0657658141339565,-54.873011088207775
3.066,-25.731407269459794
3.066174733616668,99.59388317702485
3.066174733616668,99.59388317702485
3.066426344847045,-68.89483810617119
3.066426344847045,-68.89483810617119
3.066773118337708,78.60072088495902
3.066773118337708,78.60072088495902
3.067,-20.388695535898787
3.067038973114901,-49.52492703198789
3.067038973114901,-49.52492703198789
3.067426707211264,73.37052250317265
3.067426707211264,73.37052250317265
3.0676364038917057,-18.617295545375097
3.0676364038917057,-18.617295545375097
3.068,44.73402054072821
3.0680547360397172,64.34818052366062
3.0680547360397172,64.34818052366062
3.068301097271937,-31.691767939978646
3.068301097271937,-31.691767939978646
3.068633157292341,37.7093018428736
3.068633157292341,37.7093018428736
3.068956920814127,-37.411841036847754
3.068956920814127,-37.411841036847754
3.069,-51.35580404572706
3.069237481726371,17.64405499081012
3.069237481726371,17.64405499081012
3.069556230803109,-17.48608800473962
3.069556230803109,-17.48608800473962
3.0696130416346046,-39.36986533703789
3.0696130416346046,-39.36986533703789
3.0698708462478916,17.08775416688578
3.0698708462478916,17.08775416688578
3.07,47.76200460593043
3.070182203129817,-19.121937013767482
3.070182203129817,-19.121937013767482
3.0704520868199277,3.7583896931136103
3.0704520868199277,3.7583896931136103
3.070871473465167,-38.52799999988372
3.070871473465167,-38.52799999988372
3.0709894271379525,-22.697154996218835
3.0709894271379525,-22.697154996218835
3.071,-19.024197377559414
3.0715207457816396,-35.170453517142995
3.0715207457816396,-35.170453517142995
3.0715546162997924,-30.053047017066145
3.0715546162997924,-30.053047017066145
3.072,-17.611162183209906
3.073,27.551926013685147
3.074,-4.310035778188283
3.075,-16.281007365331288
3.076,10.485745285084757
3.077,6.409465042277354
3.078,-10.056636327689263
3.079,0.6349881749103612
3.08,6.250677189730117
3.081,-4.097358807926143
3.082,-1.214660188962277
3.083,3.351685213299879
3.08353563443111,1.3250960787117487
3.08353563443111,2.6702322542002173
3.084,175.93656687825148
3.084098683046663,67.03137398794024
3.084098683046663,67.03137398794024
3.0842073125129814,126.06925815266523
3.0842073125129814,126.06925815266523
3.085,37.66500031465062
3.0850797173587066,703.9973735095045
3.0850797173587066,703.9973735095045
3.0852236691346824,484.3387264016436
3.0852236691346824,484.3387264016436
3.0853209194329785,41.67862937739072
3.0853209194329785,41.67862937739072
3.085582091926534,-303.5918020513288
3.085582091926534,-303.5918020513288
3.0857581866397457,436.94388935979464
3.0857581866397457,436.94388935979464
3.085848168718047,448.6887274926764
3.085848168718047,448.6887274926764
3.085926360858343,169.9364280372307
3.085926360858343,169.9364280372307
3.086,-172.50076890818843
3.086207234353881,-313.1008603125998
3.086207234353881,-313.1008603125998
3.0863402464299003,222.05348668788514
3.0863402464299003,222.05348668788514
3.086458792282674,429.8407608895984
3.086458792282674,429.8407608895984
3.086572088606014,114.49367712199495
3.086572088606014,114.49367712199495
3.0868149240131215,-341.76345862518696
3.0868149240131215,-341.76345862518696
3.0869302736976723,44.497918612229064
3.0869302736976723,44.497918612229064
3.087,286.64933856390064
3.087064651246791,387.0089438085216
3.087064651246791,387.0089438085216
3.0872555109099817,-71.65097551538479
3.0872555109099817,-71.65097551538479
3.087435455379136,-319.8511221776148
3.087435455379136,-319.8511221776148
3.0878540140306243,42.85536610147403
3.0878540140306243,42.85536610147403
3.088,-307.5436737803284
3.0880795985814897,-268.261546664056
3.0880795985814897,-268.261546664056
3.0884538933776895,124.25548745115614
3.0884538933776895,124.25548745115614
3.0886892104614314,-260.301217187307
3.0886892104614314,-260.301217187307
3.089,251.77747101340663
3.089148337184949,-43.54841993293967
3.089148337184949,-43.54841993293967
3.0892224109410336,-193.66701507029424
3.0892224109410336,-193.66701507029424
3.0895074474718593,136.63717763729116
3.0895074474718593,136.63717763729116
3.089587701794393,231.0148926413185
3.089587701794393,231.0148926413185
3.09,-146.68093945564397
3.091,37.63512894936305
3.092,45.18711578295514
3.093,-87.84265815339799
3.094,93.89264561233458
3.095,-75.00779164651557
3.0957773090450895,8.985878972854355
3.0957773090450895,8.985878972854355
3.0959655672246735,58.385632618124845
3.0959655672246735,58.385632618124845
3.096,46.306600028487225
3.0963497099776625,-27.731306141372798
3.0963497099776625,-27.731306141372798
3.0966264320240846,44.1272700548686
3.0966264320240846,44.1272700548686
3.0969663831129965,-34.26456765096145
3.0969663831129965,-34.26456765096145
3.097,-19.33811256303781
3.097271807868912,35.531658215202
3.097271807868912,35.531658215202
3.097458222769722,-40.17817089454942
3.097458222769722,-40.17817089454942
3.0975607596662256,-41.96641754829205
3.0975607596662256,-41.96641754829205
3.098,-10.71692470910563
3.099,34.167119092461185
3.1,-23.17805979380976
3.101,-8.241233393784174
3.102,20.966644773607833
3.103,-5.076589962719554
3.104,-11.896061942735262
3.105,9.115201693464092
3.1052591125053413,-10.391825536347548
3.1052591125053413,-10.391825536347548
3.106,3.653354089284805
3.1065730014017108,2.096162264130205
3.1065730014017108,2.096162264130205
3.107,-7.645714405909786
3.108,1.48640246705131
3.109,4.188973795175501
3.11,-3.75085650863202
3.111,0.6035690063530821
3.1113808068025595,1.5881215387086942
3.1113808068025595,2.915595946217417
3.1117653804392154,435.1025927043007
3.1117653804392154,435.1025927043007
3.112,62.25454352343025
3.113,659.6141844805647
3.113068840477469,532.3917485530255
3.113068840477469,532.3917485530255
3.114,-461.25712266214714
3.115,307.48539131610755
3.116,-120.27804242960019
3.117,-38.678873530428774
3.118,137.31587281403813
3.119,-167.62631505625163
3.12,142.77815365271994
3.121,-90.33032437447342
3.122,33.562034239679086
3.123,11.519714157503206
3.124,-35.977613983437145
3.1248262683578334,-34.48612027157827
3.1248262683578334,-34.48612027157827
3.125,45.037440622281345
3.125303386868249,-39.284404160446456
3.125303386868249,-39.284404160446456
3.126,-43.90991293816786
3.1263109030654084,42.08308328261269
3.1263109030654084,42.08308328261269
3.126380615911031,24.21384635856252
3.126380615911031,24.21384635856252
3.127,15.015274900697051
3.1270007029280125,14.759822424796042
3.1270007029280125,14.759822424796042
3.1270654293280673,-9.966103590849741
3.1270654293280673,-9.966103590849741
3.1271833071310087,-36.300915894632524
3.1271833071310087,-36.300915894632524
3.127408433642147,22.42267223987288
3.127408433642147,22.42267223987288
3.127484759825158,34.11046044473907
3.127484759825158,34.11046044473907
3.1275794065644558,19.61419707230285
3.1275794065644558,19.61419707230285
3.1277324376270665,-27.424788195732738
3.1277324376270665,-27.424788195732738
3.1279955620237563,18.500899533133698
3.1279955620237563,18.500899533133698
3.128,19.676205475340176
3.128122408819964,28.708253288107173
3.128122408819964,28.708253288107173
3.1281352482241727,26.7762259882256
3.1281352482241727,26.7762259882256
3.1283589887165544,-28.258257498840116
3.1283589887165544,-28.258257498840116
3.1285918550900633,17.66582792686261
3.1285918550900633,17.66582792686261
3.1289503129336573,-25.667330872776162
3.1289503129336573,-25.667330872776162
3.129,-25.05721255609504
3.129207767674657,20.048143719968227
3.129207767674657,20.048143719968227
3.1295526643133114,-23.590546404354782
3.1295526643133114,-23.590546404354782
3.1297887426288082,16.706636834058735
3.1297887426288082,16.706636834058735
3.13,0.6279514562544136
3.130207601569433,-16.62715938100966
3.130207601569433,-16.62715938100966
3.1303251085572974,6.174161296419612
3.1303251085572974,6.174161296419612
3.130530672865868,11.707937354062452
3.130530672865868,11.707937354062452
3.1306677189618437,-13.61257476495361
3.1306677189618437,-13.61257476495361
3.131,16.699862364694518
3.131161041854931,2.8809697694435914
3.131161041854931,2.8809697694435914
3.13119553010626,-3.3551865003065995
3.13119553010626,-3.3551865003065995
3.132,-8.283142533989853
3.133,-7.418593713325341
3.134,8.671753639157673
3.135,0.8464331940948437
3.136,-6.320503943028827
3.137,3.239412670532441
3.138,1.5678693334479474
3.1388226236822248,1.6361842571607346
3.1388226236822248,1.6361842571607346
3.139,-3.200546977898421
3.139011248747676,-3.268156503114902
3.139011248747676,-3.268156503114902
3.1392259630919215,1.429981392936504
3.1392259630919215,2.767661128272127
3.13936894473663,366.18399665326984
3.13936894473663,366.18399665326984
3.1397083470283866,357.4601291679865
3.1397083470283866,357.4601291679865
3.1399707910288104,299.46353102522517
3.1399707910288104,299.46353102522517
3.14,-756.373718415415
3.1403809451309077,254.991384354243
3.1403809451309077,254.991384354243
3.140565628159746,-953.8648576293175
3.140565628159746,-953.8648576293175
3.140913995850346,533.3204794604177
3.140913995850346,533.3204794604177
3.141,157.00176398739123
3.142,60.639706798182104
3.143,-226.6103095643555
3.144,282.1739391394516
3.145,-250.33260175623235
3.146,162.94475684382616
3.147,-60.235668253922555
3.147362684997481,-14.193414248342
3.147362684997481,-14.193414248342
3.1475859487744797,-109.82656039362507
3.1475859487744797,-109.82656039362507
3.1479530053025444,42.2277674179753
3.1479530053025444,42.2277674179753
3.148,-23.767787645363583
3.1483256314333286,32.8419953266234
3.1483256314333286,32.8419953266234
3.148676572818096,-71.78027214205625
3.148676572818096,-71.78027214205625
3.1487029115767213,-94.8408837116151
3.1487029115767213,-94.8408837116151
3.148840935785168,-93.72257671298641
3.148840935785168,-93.72257671298641
3.149,73.64416984697863
3.149057461988709,108.79992872133204
3.149057461988709,108.79992872133204
3.1494330617792317,-100.87127405013395
3.1494330617792317,-100.87127405013395
3.1496975618145644,98.36953014687876
3.1496975618145644,98.36953014687876
3.15,-87.83418042213384
3.15005119951594,-92.60682058097805
3.15005119951594,-92.60682058097805
3.15030274113863,76.71869492501878
3.15030274113863,76.71869492501878
3.150702488229277,-78.45647927169375
3.150702488229277,-78.45647927169375
3.150916890060063,58.502605307818385
3.150916890060063,58.502605307818385
3.151,75.1574212243731
3.1513086155900334,-71.44489655136614
3.1513086155900334,-71.44489655136614
3.151575593133073,61.027862067600914
3.151575593133073,61.027862067600914
3.151895642806275,-56.28056266326217
3.151895642806275,-56.28056266326217
3.152,-51.83766882639417
3.152206167638977,51.820125893116234
3.152206167638977,51.820125893116234
3.1525169354861884,-46.51673815658324
3.1525169354861884,-46.51673815658324
3.152806749940629,32.708996032275
3.152806749940629,32.708996032275
3.153,26.599439372873725
3.153141977028764,-37.484419675624174
3.153141977028764,-37.484419675624174
3.1531485357866997,-39.50351915996545
3.1531485357866997,-39.50351915996545
3.1534429485527555,32.697479324566885
3.1534429485527555,32.697479324566885
3.1537224032142044,-21.05881152592289
3.1537224032142044,-21.05881152592289
3.154,9.214000181048116
3.1541030867795072,41.95529721014004
3.1541030867795072,41.95529721014004
3.1542955397712245,-5.5563577718840955
3.1542955397712245,-5.5563577718840955
3.1547148480911047,37.59956757815108
3.1547148480911047,37.59956757815108
3.1549023436040993,-7.362489853099999
3.1549023436040993,-7.362489853099999
3.155,-34.33943056038301
3.155330982856884,34.23135732037248
3.155330982856884,34.23135732037248
3.155479151073909,1.098091121455493
3.155479151073909,1.098091121455493
3.156,22.715511989294193
3.157,9.368389692350705
3.158,-20.761191441615345
3.159,3.89970042513848
3.16,12.23912328184138
3.161,-8.052855562988883
3.162,-4.549016078887865
3.163,7.650486136737406
3.164,-1.3130143183622232
3.165,-4.110023857602041
3.166,3.660643671170903
3.167,-0.9422676868026226
3.1670711050529667,1.3428426159889457
3.1670711050529667,2.686798018108484
3.1674446555719467,725.4638939918985
3.1674446555719467,725.4638939918985
3.168,747.6186224656608
3.1684144590068644,233.81154197335724
3.1684144590068644,233.81154197335724
3.168759136994873,532.9451958679402
3.168759136994873,532.9451958679402
3.169,-518.7123573780849
3.169286862417244,415.62838828256963
3.169286862417244,415.62838828256963
3.17,454.8972531447564
3.171,-299.58569406825865
3.172,126.47442235834663
3.173,24.609680484352452
3.174,-122.27671394934873
3.175,154.96827492455733
3.176,-136.03687211576104
3.177,88.75537353423991
3.178,-35.951795624405584
3.179,-6.118748783159754
3.18,30.952873037610573
3.180526867044121,-29.78175643879497
3.180526867044121,-29.78175643879497
3.1809936711802917,-39.29616554730206
3.1809936711802917,-39.29616554730206
3.181,-41.11667689594661
3.182,42.47021454957231
3.183,-12.075427122481805
3.184,-21.02411307404359
3.185,22.61968047930295
3.186,1.9192385199682278
3.187,-16.399337699383025
3.188,6.718783016687773
3.189,8.169679973118924
3.189466225771246,-5.283431861802288
3.189466225771246,-5.283431861802288
3.19,-8.513118641868466
3.190780112688324,6.67288768209446
3.190780112688324,6.67288768209446
3.191,-0.8920123061349781
3.192,6.315121584132385
3.193,-3.5033749648568975
3.194,-1.3023345086526652
3.194916234247198,0.9921401382023625
3.194916234247198,2.3614514075711006
3.195,148.7646957705357
3.1954023101143045,-761.804729927259
3.1954023101143045,-761.804729927259
3.196,-802.4163346721635
3.196604265461234,530.959240290349
3.196604265461234,530.959240290349
3.197,-191.12169350103682
3.198,-46.25391459752335
3.199,203.0544009784428
3.2,-265.2333328575643
3.201,243.8458814293013
3.202,-164.27389104743972
3.203,68.26086896215708
3.204,13.134212763924866
3.205,-62.613761078445656
3.206,79.48637114291039
3.207,-71.47593414874248
3.208,52.037717611175076
3.2083590866765412,-35.533072837558805
3.2083590866765412,-35.533072837558805
3.2088387945222006,-39.25877509586852
3.2088387945222006,-39.25877509586852
3.209,-29.654871280962517
3.21,-10.83036452997763
3.2105179858791484,21.63148812572687
3.2105179858791484,21.63148812572687
3.211,33.21608192384495
3.211390388739186,-25.30020854699223
3.211390388739186,-25.30020854699223
3.212,-19.212893969346002
3.213,-11.648679097369634
3.214,20.023947728122995
3.215,-2.3879260147563484
3.216,-12.465820215114109
3.217,7.505279271769484
3.218,4.885328661478429
3.219,-7.956122595419028
3.22,1.4032679154602603
3.221,4.760923814919952
3.222,-4.8071084295022874
3.2227613520641283,0.9259885864277554
3.2227613520641283,2.3011598337771906
3.223,712.3024522180647
3.223246218509063,352.9283166346663
3.223246218509063,352.9283166346663
3.224,125.77496582178122
3.224449382629729,537.137862154831
3.224449382629729,537.137862154831
3.225,475.39010439254514
3.226,-419.2824375370729
3.227,296.39803880391196
3.228,-138.27958052271416
3.229,-7.535521179077222
3.23,103.39971222312775
3.231,-139.93255303531282
3.231569739901247,-68.23168408705183
3.231569739901247,-68.23168408705183
3.232,126.99215631343641
3.232883626059144,-89.83766062825727
3.232883626059144,-89.83766062825727
3.233,-87.23672635960388
3.234,39.40468192719897
3.235,-0.2662415951345971
3.236,-23.684313423615237
3.236204204808937,-36.248297141633714
3.236204204808937,-36.248297141633714
3.236683907122552,-39.044332333461455
3.236683907122552,-39.044332333461455
3.237,39.47329512478013
3.238,-38.48409147569129
3.239,7.6630862269826014
3.24,22.981553130024768
3.241,-20.210010141837905
3.242,-4.573581960602378
3.243,16.059150226823128
3.244,-4.513093817326632
3.245,-8.947699590289897
3.246,7.6439475657252665
3.247,1.8930569026788922
3.248,-6.344071516545249
3.249,3.100799942825018
3.25,1.1921158527964473
3.2506064597385667,0.8843860226914999
3.2506064597385667,2.260836950532436
3.251,-583.5258422857937
3.2510912941680363,354.3532516630891
3.2510912941680363,354.3532516630891
3.252,365.6082940069374
3.2522944897258843,532.9494054728186
3.2522944897258843,532.9494054728186
3.252621488326706,-457.89359179831183
3.252621488326706,-457.89359179831183
3.253,209.43916654754904
3.253493890724129,440.18826622759394
3.253493890724129,440.18826622759394
3.254,3.0666442855294207
3.255,-168.9624033148921
3.256,237.70220719740115
3.257,-224.96272308572046
3.258,156.6292196917223
3.259,-68.7275639337037
3.26,-7.108833543001584
3.261,55.78894628065762
3.262,-73.57333585383438
3.263,67.89415920689501
3.264,-52.038953280240754
3.2640493108124007,-35.85914249621935
3.2640493108124007,-35.85914249621935
3.2645290101452504,-39.14904563535317
3.2645290101452504,-39.14904563535317
3.265,27.21981775186534
3.266,13.129871887091648
3.267,-32.58869669981786
3.268,15.081427533807114
3.269,13.770891180858197
3.27,-17.71369361587144
3.271,-0.6960145049892459
3.272,12.905604670001004
3.273,-5.774734402045341
3.273673231635557,3.308220772870115
3.273673231635557,3.308220772870115
3.274,-5.739193916039068
3.2749871171550247,7.567365624309554
3.2749871171550247,7.567365624309554
3.275,7.290069149825585
3.276,-0.6976238283509759
3.277,-4.373550432508345
3.278,4.004987435889785
3.278451558367739,1.0348566931269132
3.278451558367739,2.4016838714644377
3.278936407140047,348.2247304199908
3.278936407140047,348.2247304199908
3.279,151.86430817335963
3.28,-581.1125649941424
3.2801395878392334,532.3154165825083
3.2801395878392334,532.3154165825083
3.281,-428.29541217393955
3.282,407.51331507218754
3.283,-289.622950229759
3.284,143.46406080445726
3.285,-4.530458581820164
3.286,-90.05064092575893
3.287,128.67940639795526
3.288,-121.35088292927973
3.289,85.94546246763501
3.29,-42.512691513228575
3.291,6.766977579091981
3.2918944041755283,-35.719762836026845
3.2918944041755283,-35.719762836026845
3.292,17.65215940255556
3.2923741046244572,-39.07311949504703
3.2923741046244572,-39.07311949504703
3.293,-37.90570708975487
3.294,35.24304119151785
3.2947249702343493,-4.871781263617802
3.2947249702343493,-4.871781263617802
3.295,-3.25393200855371
3.295597372242533,-1.2708630597699047
3.295597372242533,-1.2708630597699047
3.296,-23.72101624552762
3.297,15.936579152995748
3.298,8.098894017861223
3.299,-14.698585252355056
3.3,1.234492359183338
3.301,9.06520107876109
3.302,-5.027184917210624
3.303,-3.4631516010234313
3.304,5.3592602629133825
3.305,-1.5620949438852891
3.306,-1.8159175653191255
3.306296648926541,1.369734256060392
3.306296648926541,2.7118008977731725
3.306761169257372,-933.652001734415
3.306761169257372,-933.652001734415
3.307,-318.3546720028554
3.307984677937591,539.1113478529621
3.307984677937591,539.1113478529621
3.308,494.61504773574075
3.309,-255.0205074067024
3.31,25.6868007619817
3.311,133.64577144748293
3.312,-213.94461315974962
3.313,212.39307563485494
3.314,-154.6394203110347
3.315,75.2598695944005
3.315776704527051,-96.56967530688266
3.315776704527051,-96.56967530688266
3.315904707615915,-100.35348202695837
3.315904707615915,-100.35348202695837
3.316,-3.6160317593668494
3.3164805607024936,-106.05220488624445
3.3164805607024936,-106.05220488624445
3.3165265065029708,-92.4561988830275
3.3165265065029708,-92.4561988830275
3.317,-43.86326866187293
3.3170905895090756,-92.90765137039479
3.3170905895090756,-92.90765137039479
3.3171708152676826,-76.30913432351235
3.3171708152676826,-76.30913432351235
3.317523788333198,48.16751053462739
3.317523788333198,48.16751053462739
3.317763965473105,-81.37759713172315
3.317763965473105,-81.37759713172315
3.318,63.868558327658846
3.3181733066567345,32.23320333838213
3.3181733066567345,32.23320333838213
3.3183925791785263,-70.85613204904101
3.3183925791785263,-70.85613204904101
3.318756676604296,55.612511829131634
3.318756676604296,55.612511829131634
3.319,-62.24598285462323
3.3190569110477885,-56.70853228338983
3.3190569110477885,-56.70853228338983
3.319339697597525,59.35914940420383
3.319339697597525,59.35914940420383
3.3196655679346625,-55.93812957186155
3.3196655679346625,-55.93812957186155
3.319978838344549,51.35239783314094
3.319978838344549,51.35239783314094
3.32,49.03327424410215
3.3202191914790853,-39.299616543395246
3.3202191914790853,-39.299616543395246
3.320259398634078,-48.01045089052164
3.320259398634078,-48.01045089052164
3.3206024018983373,48.627458298507854
3.3206024018983373,48.627458298507854
3.3209224096081917,-43.36670055586477
3.3209224096081917,-43.36670055586477
3.321,-22.6229081221673
3.3211625418136874,40.23783101759237
3.3211625418136874,40.23783101759237
3.321583482936956,-27.409717739700177
3.321583482936956,-27.409717739700177
3.3217303754076193,27.201090167882125
3.3217303754076193,27.201090167882125
3.322,-16.75333684683637
3.3221684462870007,-29.077099435354533
3.3221684462870007,-29.077099435354533
3.322352855578451,29.343203112183506
3.322352855578451,29.343203112183506
3.322795053146388,-18.484896050616996
3.322795053146388,-18.484896050616996
3.322909838491545,18.193893192655835
3.322909838491545,18.193893192655835
3.323,31.527870057023307
3.324,-9.793027555273987
3.325,-16.205074871261388
3.326,14.686971337730808
3.327,4.1064933628099585
3.328,-11.616928889744518
3.329,2.4165589473836873
3.33,6.583488722030433
3.331,-5.317021294953691
3.332,-1.009772817401378
3.333,3.855547995138157
3.334,-2.810464668968933
3.3341417322810667,1.339399275343259
3.3341417322810667,2.6834584795420753
3.334353329689663,-902.983022299436
3.334353329689663,-902.983022299436
3.334619754315491,-955.1344822547933
3.334619754315491,-955.1344822547933
3.334775640313358,63.200836288001724
3.334775640313358,63.200836288001724
3.335,303.4520375414545
3.335829760881022,531.1536262236284
3.335829760881022,531.1536262236284
3.336,-300.0440420270456
3.33682843485119,-307.38127957510426
3.33682843485119,-307.38127957510426
3.337,382.85086748670267
3.3371557325027865,248.36181049943366
3.3371557325027865,248.36181049943366
3.3372966269692323,-304.6564868055076
3.3372966269692323,-304.6564868055076
3.3377008365315586,404.0159780785484
3.3377008365315586,404.0159780785484
3.337786109599338,232.41251939399416
3.337786109599338,232.41251939399416
3.3378359096261225,54.28615707227304
3.3378359096261225,54.28615707227304
3.337949640489949,-310.06844208876714
3.337949640489949,-310.06844208876714
3.338,-367.91709689993684
3.3381835427681583,64.4959083540241
3.3381835427681583,64.4959083540241
3.338351960562042,334.1860543702191
3.338351960562042,334.1860543702191
3.33849550233033,-44.5847407799465
3.33849550233033,-44.5847407799465
3.3385627509884923,-240.92188887188087
3.3385627509884923,-240.92188887188087
3.3388062583581832,21.632989123035962
3.3388062583581832,21.632989123035962
3.338945143924364,303.4343458819939
3.338945143924364,303.4343458819939
3.339,275.71968352056
3.339107671057943,17.419359512828954
3.339107671057943,17.419359512828954
3.3392420069518556,-280.46813474964847
3.3392420069518556,-280.46813474964847
3.339416973264176,-38.37318992630439
3.339416973264176,-38.37318992630439
3.3395422996500717,246.50356928093757
3.3395422996500717,246.50356928093757
3.339718533614084,72.54495639662179
3.339718533614084,72.54495639662179
3.3399307800777978,-241.10684629922966
3.3399307800777978,-241.10684629922966
3.34,-141.48871813909778
3.3400457263445515,-36.9166082572631
3.3400457263445515,-36.9166082572631
3.340199697123602,240.96328856664877
3.340199697123602,240.96328856664877
3.3402823746881447,192.96544208854266
3.3402823746881447,192.96544208854266
3.340509973462242,-218.5109914577706
3.340509973462242,-218.5109914577706
3.340696262866139,9.25745307903112
3.340696262866139,9.25745307903112
3.341,12.040459051020541
3.3411134840427374,-177.45165389835262
3.3411134840427374,-177.45165389835262
3.3412992464019036,-45.14548569293655
3.3412992464019036,-45.14548569293655
3.3415425078055074,148.31460722172739
3.3415425078055074,148.31460722172739
3.341610396457146,48.179094018241756
3.341610396457146,48.179094018241756
3.342,78.3092851892061
3.342098922414862,165.10504522832514
3.342098922414862,165.10504522832514
3.342273341207862,-6.600196666961308
3.342273341207862,-6.600196666961308
3.342730601995915,145.07822326423587
3.342730601995915,145.07822326423587
3.3428502786480347,65.9426752278196
3.3428502786480347,65.9426752278196
3.343,-117.32110664030739
3.344,112.86793645667464
3.3446529998592043,98.27263761532944
3.3446529998592043,98.27263761532944
3.3447965042916143,-0.7883192771714853
3.3447965042916143,-0.7883192771714853
3.345,-82.2994015711676
3.3452844937871316,85.09594726035338
3.3452844937871316,85.09594726035338
3.345401160395306,21.19933759468708
3.345401160395306,21.19933759468708
3.3458907894036263,75.09643421369044
3.3458907894036263,75.09643421369044
3.346,42.43219878928096
3.3460521784754875,6.710411415606536
3.3460521784754875,6.710411415606536
3.3464772274347068,56.255463885617274
3.3464772274347068,56.255463885617274
3.3467318649487527,-20.19932194432231
3.3467318649487527,-20.19932194432231
3.347,-9.16547089070754
3.347098812565242,43.92194558720689
3.347098812565242,43.92194558720689
3.347369495791701,-19.048477752862574
3.347369495791701,-19.048477752862574
3.3477257994705845,34.05531968647192
3.3477257994705845,34.05531968647192
3.348,-14.058553684142268
3.348027205237656,-26.20187883067614
3.348027205237656,-26.20187883067614
3.3480642715261446,-39.43880178791696
3.3480642715261446,-39.43880178791696
3.3482944781749064,3.693892475895206
3.3482944781749064,3.693892475895206
3.3487510046656377,-44.04913402206675
3.3487510046656377,-44.04913402206675
3.3488015857306,-36.16743363972701
3.3488015857306,-36.16743363972701
3.349,38.69440974320989
3.35,-31.20903633017168
3.351,-2.1426663441263405
3.352,23.743192622465376
3.353,-11.33070343244667
3.354,-10.566537420256275
3.355,12.650783250757398
3.356,1.4122299869407282
3.357,-9.109079391268978
3.357880161548275,7.620524666838472
3.357880161548275,7.620524666838472
3.358,3.669027920537858
3.359,3.9413590703117976
3.359194046077441,2.093017816531219
3.359194046077441,2.093017816531219
3.36,-4.697588259278405
3.361,0.9116524950131148
3.3619868092023206,1.4339937270863767
3.3619868092023206,2.771537520088817
3.362,-1273.5954238539603
3.362329969223431,-548.0649809985041
3.362329969223431,-548.0649809985041
3.363,655.6919314455135
3.3636748374354797,533.3598070198952
3.3636748374354797,533.3598070198952
3.364,-463.0083034378726
3.365,252.7025790707317
3.366,-38.992792680836736
3.367,-120.9124616691409
3.368,200.48345294574307
3.369,-202.2648793456406
3.37,150.00428538340807
3.371,-76.36257114249499
3.372,8.805517100905828
3.373,37.845268494048334
3.374,-57.941936837339014
3.375,58.534180654995524
3.375426447775597,-36.78825353171871
3.375426447775597,-36.78825353171871
3.375909345493359,-39.478524396051114
3.375909345493359,-39.478524396051114
3.376,-48.19479269043691
3.377,19.208398276935682
3.378,18.24129851383667
3.3789318848988943,-24.374700076278437
3.3789318848988943,-24.374700076278437
3.379,-29.163218520837933
3.37904037478975,-24.906146107900273
3.37904037478975,-24.906146107900273
3.3795804868388504,-26.692865182938867
3.3795804868388504,-26.692865182938867
3.379737405225105,2.6104387898264823
